SensorId, TimeStamp (s), FrameNumber, AccX (g), AccY (g), AccZ (g), GyroX (deg/s), GyroY (deg/s), GyroZ (deg/s), MagX (uT), MagY (uT), MagZ (uT), EulerX (deg), EulerY (deg), EulerZ (deg), QuatW, QuatX, QuatY, QuatZ, LinAccX (g), LinAccY (g), LinAccZ (g), Pressure (kPa), Altitude (m), Temperature (degC), HeaveMotion (m)
1,0,0,0.00010047,0.00238172,-0.99857372,-0.01039648,0.0529018,0.03035599,-64.10406494,16.13563347,-81.90587616,-0.01068062,-0.01762747,-6.74935198,0.99826598,0.0001021,0.00014808,0.05886515,0.00090918,0.00081556,-0.00142435,0,0,26.26000023,0
1,0.01,1,0.00104851,0.00228438,-0.99982083,-0.06264217,0.0191848,-0.04002882,-64.10406494,16.13563347,-81.90587616,-0.01130763,-0.01743655,-6.74976015,0.99826574,0.00010746,0.00014609,0.05886871,-0.00002633,0.0009285,-0.0001762,0,0,26.26000023,0
1,0.02,2,0.00025262,0.00297805,-0.99953824,0.00736644,0.05379282,-0.00430909,-64.51329803,14.61560917,-81.90587616,-0.00658209,-0.02588971,-6.74993467,0.99826568,0.00007064,0.00022216,0.05887023,0.00073703,0.00021083,-0.00045776,0,0,26.26000023,0
1,0.03,3,0.00117053,0.00246849,-0.9999091,-0.09812395,0.01776347,0.01193345,-63.66559601,15.66793346,-82.34434509,-0.00756338,-0.0257113,-6.74981499,0.99826574,0.0000791,0.0002201,0.05886919,-0.00029483,0.00067156,-0.00008727,0,0,26.26000023,0
1,0.04,4,0.00101755,0.00248942,-0.99942219,-0.08109567,0.05222332,0.03007315,-64.39637756,15.49254608,-81.87664032,-0.00837425,-0.02518773,-6.74950027,0.99826586,0.00008589,0.00021512,0.05886645,-0.00013259,0.00066872,-0.00057429,0,0,26.26000023,0
1,0.05,5,0.00065034,0.00283673,-1.00008726,0.02615805,-0.01606084,0.02909527,-63.84098053,16.01870728,-82.31510925,-0.00811258,-0.02534701,-6.74921131,0.9982661,0.00008369,0.00021664,0.05886394,0.00023557,0.00032508,0.00009135,0,0,26.26000023,0
1,0.06,6,0.00013126,0.00237084,-0.99957806,0.04289228,0.05557485,-0.07363933,-63.84098053,16.01870728,-82.31510925,-0.00768447,-0.0247932,-6.74995422,0.99826562,0.00007968,0.00021204,0.0588704,0.00075755,0.00078186,-0.00041996,0,0,26.26000023,0
1,0.07,7,0.00098729,0.00227492,-0.99933416,-0.02841657,0.06969696,0.04800374,-63.49020767,16.13563347,-82.46126556,-0.00012525,-0.02488947,-6.74937439,0.99826598,0.00001388,0.00021676,0.05886534,-0.00008833,0.00084162,-0.000663,0,0,26.26000023,0
1,0.08,8,0.00089542,0.00239884,-0.99945426,0.01008029,0.10169822,0.01187712,-63.89944458,15.55100822,-81.73048401,-0.0000245,-0.02387173,-6.74925518,0.99826604,0.00001248,0.00020795,0.0588643,0.00000301,0.00061852,-0.00054267,0,0,26.26000023,0
1,0.09,9,0.00098578,0.00324209,-0.99904579,-0.09179976,0.04174745,0.16447908,-63.43174362,14.5863781,-81.26278687,-0.00094116,-0.02344891,-6.74760532,0.99826682,0.00002024,0.00020379,0.05884992,-0.00007415,-0.00021672,-0.00094843,0,0,26.26000023,0
1,0.1,10,0.00043631,0.00272487,-0.99902433,-0.05578925,0.04749716,-0.09589805,-63.19789505,15.96024513,-82.13972473,-0.0015001,-0.02297649,-6.74857044,0.99826634,0.00002487,0.00019939,0.05885833,0.00048772,0.00031415,-0.00097229,0,0,26.26000023,0
1,0.11,11,0.00049735,0.00292673,-1.00002539,-0.07282472,-0.00681303,0.00718702,-63.19789505,15.96024513,-82.13972473,-0.00222843,-0.02304399,-6.74849749,0.99826646,0.00003125,0.0001996,0.0588577,0.00042852,0.00012419,0.00002957,0,0,26.26000023,0
1,0.12,12,0.00080262,0.00309369,-0.99923104,0.05067858,-0.00742922,0.09452152,-63.16866302,15.96024513,-82.16895294,0.00009103,-0.02418098,-6.74751425,0.99826688,0.00001163,0.0002107,0.05884913,0.00011333,-0.00005351,-0.00076392,0,0,26.26000023,0
1,0.13,13,0.00098494,0.00371709,-0.99846047,-0.05670013,0.07962321,0.02637836,-63.19789505,14.99561501,-81.8181839,-0.00047587,-0.02338358,-6.74725008,0.99826705,0.00001615,0.00020346,0.05884683,-0.00007536,-0.00070086,-0.00153232,0,0,26.26000023,0
1,0.14,14,0.00080338,0.0026104,-0.99939042,-0.02044684,0.02798603,0.02546815,-63.89944458,16.34025192,-81.78894806,-0.00068028,-0.02310258,-6.74701405,0.99826717,0.00001779,0.00020091,0.05884477,0.00011754,0.00041538,-0.00060597,0,0,26.26000023,0
1,0.15,15,-0.00011355,0.00251983,-0.99942416,-0.0735081,0.04696687,-0.07860086,-63.84098053,16.01870728,-81.7012558,-0.00141626,-0.02263493,-6.74779654,0.99826682,0.00002396,0.00019646,0.05885159,0.00104035,0.000515,-0.00057371,0,0,26.26000023,0
1,0.16,16,0.00116989,0.00289395,-0.99990273,0.05116324,-0.00346152,-0.09652543,-63.84098053,16.01870728,-81.7012558,-0.00090565,-0.02267208,-6.74875498,0.99826622,0.00001954,0.00019704,0.05885994,-0.00023705,0.00014199,-0.0000924,0,0,26.26000023,0
1,0.17,17,0.00071111,0.00297331,-0.99929392,0.05209662,-0.09477796,0.12750462,-64.04560089,16.22332573,-82.46126556,-0.00062448,-0.02411843,-6.74749041,0.99826694,0.00001783,0.00020979,0.05884892,0.0002062,0.00005434,-0.00070156,0,0,26.26000023,0
1,0.18,18,0.0001008,0.00224041,-0.99912357,0.06903487,0.0107647,-0.01010612,-64.1917572,16.13563347,-82.19818878,0.00006562,-0.02401072,-6.74758863,0.99826694,0.00001176,0.0002092,0.05884978,0.00080639,0.0007763,-0.00087478,0,0,26.26000023,0
1,0.19,19,0.00071141,0.00272309,-0.99893248,0.03695721,-0.06399391,0.02056176,-63.66559601,15.22946453,-82.13972473,0.00043521,-0.0246497,-6.74738693,0.99826694,0.00000887,0.00021496,0.05884802,0.00018982,0.00028755,-0.00106373,0,0,26.26000023,0
1,0.2,20,0.00065097,0.00251663,-1.00082242,-0.03516003,0.02267636,-0.01270419,-63.98713684,15.11254025,-82.05203247,0.00008334,-0.02442296,-6.74751568,0.99826694,0.00001182,0.0002128,0.05884915,0.00024994,0.00049957,0.00082552,0,0,26.26000023,0
1,0.21,21,0.00123032,0.00338256,-1.00001693,-0.03279423,-0.11628811,0.00185939,-63.49020767,16.01870728,-82.4905014,-0.00024473,-0.02558539,-6.74749374,0.99826694,0.00001527,0.00022276,0.05884895,-0.00034159,-0.00036368,0.00002353,0,0,26.26000023,0
1,0.22,22,0.00187175,0.00353769,-0.99861342,0.09157588,-0.14939107,-0.01571465,-63.49020767,16.01870728,-82.4905014,-0.00579744,-0.02429703,-6.74769974,0.99826682,0.00006298,0.00020869,0.05885076,-0.00100047,-0.00050233,-0.00137879,0,0,26.26000023,0
1,0.23,23,0.0017205,0.00257999,-0.99938887,0.03661192,-0.04702914,0.03828022,-63.63636398,15.96024513,-82.57819366,-0.00543114,-0.02476577,-6.74732494,0.99826699,0.00006003,0.00021296,0.05884749,-0.00082287,0.00052975,-0.00060641,0,0,26.26000023,0
1,0.24,24,0.00049739,0.00289574,-0.99999541,0.05355927,0.00655967,-0.03006909,-64.16252136,15.63870239,-82.31510925,-0.00489602,-0.0247007,-6.74762583,0.99826682,0.00005534,0.00021267,0.05885011,0.00039599,0.00021178,-0.00000049,0,0,26.26000023,0
1,0.25,25,0.00022048,0.00393871,-0.99891531,0.00053487,0.00605082,-0.03028119,-64.01636505,15.75562668,-82.84127045,-0.0048911,-0.02464075,-6.74793053,0.9982667,0.00005526,0.00021215,0.05885276,0.00067489,-0.00083911,-0.00107784,0,0,26.26000023,0
1,0.26,26,0.00046576,0.00341734,-0.9986791,0.00010145,0.02229419,0.02217306,-63.95790482,15.55100822,-82.4905014,-0.00489005,-0.02441674,-6.74770498,0.99826676,0.00005514,0.0002102,0.0588508,0.00042943,-0.00032008,-0.00131526,0,0,26.26000023,0
1,0.27,27,0.00196434,0.00313943,-1.00001907,-0.07050963,0.02233714,-0.01284554,-63.95790482,15.55100822,-82.4905014,-0.00528115,-0.01661875,-6.74773884,0.99826682,0.00005454,0.00014206,0.05885109,-0.00102822,-0.00003022,0.00002571,0,0,26.26000023,0
1,0.28,28,0.0019031,0.00298593,-0.99837816,0.03713345,-0.06255113,-0.04890986,-63.98713684,16.19409561,-82.63665771,-0.00491053,-0.01724539,-6.74823427,0.99826652,0.00005164,0.00014771,0.05885541,-0.00087189,0.00011868,-0.00161569,0,0,26.26000023,0
1,0.29,29,0.00144559,0.00253223,-1.00005972,0.12910558,-0.1098742,-0.04897726,-62.99327469,15.02484608,-82.19818878,-0.00362011,-0.01834524,-6.74873018,0.99826628,0.00004096,0.00015796,0.05885973,-0.00043394,0.000552,0.00006388,0,0,26.26000023,0
1,0.3,30,0.00113966,0.00254133,-0.99896467,0.03952666,-0.04142039,-0.04792864,-63.8117485,14.11867905,-82.54895782,-0.00322552,-0.01876053,-6.74920702,0.99826604,0.00003774,0.00016178,0.05886388,-0.00013508,0.00053272,-0.00103152,0,0,26.26000023,0
1,0.31,31,0.00074313,0.00199964,-0.99924755,-0.06756521,-0.01139412,0.12602718,-63.05173874,14.55714703,-82.75357819,-0.0039001,-0.01887021,-6.74794102,0.99826676,0.00004367,0.00016239,0.05885286,0.00025258,0.00107918,-0.00075086,0,0,26.26000023,0
1,0.32,32,0.00083503,0.00170128,-0.99797374,0.00241373,0.0625539,-0.06333474,-63.05173874,14.55714703,-82.75357819,-0.00377044,-0.0162825,-6.74855232,0.99826646,0.00004121,0.00013991,0.05885819,0.00017509,0.00138126,-0.0020255,0,0,26.26000023,0
1,0.33,33,0.0009854,0.00348402,-0.99898136,-0.06673525,-0.0243912,-0.08273818,-63.46097565,15.49254608,-82.78281403,-0.00443882,-0.0165286,-6.7493701,0.99826604,0.00004716,0.00014171,0.05886531,0.00005513,-0.0003965,-0.00101224,0,0,26.26000023,0
1,0.34,34,0.00122959,0.00362178,-0.9982484,0.02193997,-0.04086859,-0.08273517,-63.92867661,14.99561501,-82.69511414,-0.00422043,-0.01693944,-6.75020933,0.9982655,0.00004547,0.0001454,0.05887261,-0.00019878,-0.00053259,-0.00174442,0,0,26.26000023,0
1,0.35,35,0.00064973,0.00319491,-0.99974716,-0.01410741,-0.02712864,0.07378507,-64.01636505,15.96024513,-82.75357819,-0.00436093,-0.01720809,-6.74948072,0.99826586,0.00004683,0.00014767,0.05886626,0.00038005,-0.00010259,-0.00024769,0,0,26.26000023,0
1,0.36,36,0.00046576,0.00345246,-0.99892205,0.05831826,-0.11127404,-0.01452432,-64.01636505,15.93101406,-82.19818878,-0.00377807,-0.01832088,-6.74962711,0.99826586,0.00004232,0.00015766,0.05886754,0.00054713,-0.0003681,-0.00107234,0,0,26.26000023,0
1,0.37,37,0.00046591,0.00353985,-1.00029016,0.03788832,0.04412486,0.00592779,-64.01636505,15.93101406,-82.19818878,-0.0049516,-0.02316398,-6.74966764,0.99826586,0.00005504,0.00019925,0.0588679,0.00052217,-0.00045526,0.00029611,0,0,26.26000023,0
1,0.38,38,0.0001609,0.00301199,-0.99972051,-0.03212029,0.00951686,-0.02979196,-63.92867661,15.84332085,-82.40280151,-0.00527324,-0.02306938,-6.7499752,0.99826568,0.00005779,0.00019826,0.05887058,0.00076415,0.00009614,-0.00027555,0,0,26.26000023,0
1,0.39,39,0.00135243,0.00357791,-1.00068331,-0.10552726,0.01580842,0.00480707,-64.01636505,15.84332085,-82.84127045,-0.00632863,-0.02291076,-6.74991989,0.99826568,0.0000669,0.00019634,0.0588701,-0.00042466,-0.00045564,0.00069051,0,0,26.26000023,0
1,0.4,40,0.00089494,0.00266526,-0.99908507,0.00050796,-0.03294719,0.0215963,-64.16252136,14.3232975,-82.34434509,-0.00632352,-0.02323919,-6.74969912,0.99826574,0.00006703,0.0001992,0.05886817,0.00002648,0.0004606,-0.00091097,0,0,26.26000023,0
1,0.41,41,0.00116926,0.00307238,-0.99813497,-0.07100682,0.01907214,-0.01237068,-63.78252029,16.07716942,-82.16895294,-0.00703387,-0.02304845,-6.7498107,0.99826568,0.00007312,0.00019717,0.05886915,-0.00024732,0.00005373,-0.00185948,0,0,26.26000023,0
1,0.42,42,0.00086505,0.0021368,-0.99848443,0.07108217,-0.01350046,-0.04724194,-64.25022125,16.42794418,-82.08126068,-0.00613186,-0.02222256,-6.75027704,0.9982655,0.00006483,0.00019044,0.05887321,0.00006287,0.00099416,-0.00151331,0,0,26.26000023,0
1,0.43,43,0.00144659,0.00165055,-0.99849051,0.05198214,0.05382832,0.04092905,-64.25022125,16.42794418,-82.08126068,-0.00561185,-0.02168263,-6.74988699,0.99826574,0.00006003,0.00018601,0.05886981,-0.00050557,0.00146174,-0.00150796,0,0,26.26000023,0
1,0.44,44,0.00107805,0.00291489,-0.9994157,0.08802234,0.020238,0.00563356,-63.87021255,15.90178299,-81.99356842,-0.00473174,-0.02147969,-6.74982977,0.99826574,0.00005226,0.00018469,0.05886931,-0.00012932,0.00018644,-0.00057945,0,0,26.26000023,0
1,0.45,45,0.0000401,0.00204069,-0.99979621,-0.07199863,0.07032714,0.02341672,-63.87021255,15.78485775,-82.51972961,-0.00545161,-0.02077534,-6.74958944,0.99826586,0.00005816,0.00017818,0.05886722,0.00092152,0.0010674,-0.00020294,0,0,26.26000023,0
1,0.46,46,0.00126197,0.00265202,-0.99996704,0.03633503,-0.04849063,-0.04808445,-63.98713684,15.9894762,-82.57819366,-0.0050889,-0.02126136,-6.75006866,0.99826556,0.00005525,0.0001826,0.05887139,-0.00030267,0.00045577,-0.00002876,0,0,26.26000023,0
1,0.47,47,0.00028263,0.00341297,-1.0000186,0.01921863,-0.0836719,-0.03148836,-64.0748291,16.07716942,-82.40280151,-0.0123829,-0.026778,-6.75061321,0.99826527,0.00012163,0.00022691,0.05887615,0.00064548,-0.0002741,0.00002387,0,0,26.26000023,0
1,0.48,48,0.00064995,0.0030769,-0.99993151,0.12462091,-0.04836396,-0.0129951,-64.0748291,16.07716942,-82.40280151,-0.01113695,-0.02726167,-6.75072956,0.99826527,0.00011103,0.00023177,0.05887716,0.00020751,0.00014642,-0.00006363,0,0,26.26000023,0
1,0.49,49,0.00126157,0.00274933,-0.99871784,0.01050099,-0.01168694,0.16351236,-64.0748291,15.5802393,-82.69511414,-0.01103071,-0.02737287,-6.74907494,0.9982661,0.00011015,0.00023279,0.05886275,-0.0004133,0.00045756,-0.00127753,0,0,26.26000023,0
1,0.5,50,0.00046691,0.00276413,-0.99948013,-0.0131588,-0.03624979,-0.00838681,-64.01636505,14.06021595,-82.3735733,-0.01116255,-0.02773526,-6.74917746,0.9982661,0.00011149,0.00023588,0.05886364,0.00037406,0.00044953,-0.00051624,0,0,26.26000023,0
1,0.51,51,0.00135309,0.00297684,-0.999475,0.00404571,-0.0003471,-0.0597187,-63.16866302,16.25255775,-82.98742676,-0.01112276,-0.02774028,-6.74976969,0.99826568,0.00011115,0.00023595,0.0588688,-0.00051069,0.00023228,-0.00051951,0,0,26.26000023,0
1,0.52,52,0.00046531,0.00372183,-0.99870497,-0.01453997,0.0316093,0.06248701,-64.16252136,15.75562668,-82.43203735,-0.01024575,-0.02813969,-6.74917316,0.9982661,0.00010371,0.00023988,0.0588636,0.00037265,-0.00052017,-0.00128848,0,0,26.26000023,0
1,0.53,53,0.00055905,0.00242156,-0.99905902,0.00481722,-0.05340563,-0.00866664,-64.16252136,15.75562668,-82.43203735,-0.01019779,-0.02867363,-6.74925566,0.99826598,0.00010357,0.00024455,0.05886432,0.00026656,0.0007717,-0.00093817,0,0,26.26000023,0
1,0.54,54,0.00083535,0.00177248,-1.00007236,-0.06763811,0.07007979,-0.14543888,-64.0748291,15.28792763,-82.72434998,-0.01087555,-0.02797711,-6.75070238,0.99826527,0.00010912,0.00023813,0.05887692,0.00000062,0.00143099,0.00007357,0,0,26.26000023,0
1,0.55,55,0.00013165,0.00202353,-0.99891376,-0.04950021,0.01466603,0.02725923,-64.13329315,16.54487038,-82.22741699,-0.01137048,-0.02782917,-6.75042582,0.99826539,0.00011335,0.00023659,0.05887452,0.00070479,0.00118582,-0.0010853,0,0,26.26000023,0
1,0.56,56,0.00138653,0.00109561,-0.99965531,0.02051559,0.06912437,-0.05824582,-64.27944946,17.21718788,-82.57819366,-0.011166,-0.02713942,-6.75101089,0.99826515,0.00011122,0.00023069,0.05887961,-0.00054028,0.00211854,-0.00034492,0,0,26.26000023,0
1,0.57,57,0.0005879,0.00361505,-0.99946707,-0.05010267,0.04931698,0.02796031,-64.54253387,16.83718109,-82.63665771,-0.01143691,-0.02540242,-6.75068188,0.99826527,0.00011268,0.00021542,0.05887675,0.00027534,-0.00039908,-0.00052653,0,0,26.26000023,0
1,0.58,58,0.00101703,0.00289219,-0.99981177,-0.0135041,-0.01928498,0.00933165,-64.54253387,16.83718109,-82.63665771,-0.01157202,-0.02559458,-6.75058937,0.99826539,0.00011396,0.00021702,0.05887595,-0.00013667,0.00032578,-0.00018346,0,0,26.26000023,0
1,0.59,59,0.00110958,0.00234753,-0.99994147,0.00584379,-0.02020487,0.01047257,-64.22098541,16.34025192,-82.28588104,-0.01151364,-0.02579593,-6.7504797,0.99826539,0.00011355,0.00021881,0.05887499,-0.00023087,0.00087006,-0.00005523,0,0,26.26000023,0
1,0.6,60,0.0010464,0.00364662,-0.9995265,-0.00727484,0.03194037,-0.15901488,-64.16252136,14.84945869,-82.25665283,-0.01158796,-0.02548128,-6.75206757,0.99826449,0.00011404,0.00021603,0.05888882,-0.00016587,-0.00042879,-0.00046641,0,0,26.26000023,0
1,0.61,61,0.00068123,0.00248233,-0.99905783,-0.05906463,-0.07721037,0.06445246,-63.75328827,15.84332085,-82.16895294,-0.01217817,-0.02625093,-6.75142431,0.99826491,0.00011958,0.00022243,0.05888322,0.00019164,0.00074213,-0.00093908,0,0,26.26000023,0
1,0.62,62,0.00058896,0.00291667,-0.99950802,0.0278032,0.01026505,0.0665587,-63.25635529,14.82022762,-82.43203735,-0.00911894,-0.03125361,-6.75087452,0.99826515,0.0000955,0.00026758,0.05887842,0.00025491,0.00029663,-0.0004877,0,0,26.26000023,0
1,0.63,63,0.001536,0.00327541,-0.99919623,0.02733293,0.04599807,0.01515607,-63.5194397,14.82022762,-82.13972473,-0.00884565,-0.03079277,-6.75073433,0.99826527,0.00009288,0.00026371,0.0588772,-0.00074693,-0.00010259,-0.00079711,0,0,26.26000023,0
1,0.64,64,0.00083389,0.00253306,-0.99853939,0.09902392,-0.00457845,-0.02034852,-63.5194397,15.40485191,-82.13972473,-0.00785575,-0.03083879,-6.75093222,0.99826521,0.00008428,0.00026462,0.05887893,-0.00004651,0.0006259,-0.00145711,0,0,26.26000023,0
1,0.65,65,0.0011998,0.00331764,-0.99980503,0.0285819,-0.02294308,-0.00361398,-63.37328339,15.40485191,-82.28588104,-0.00757013,-0.03106796,-6.75097704,0.99826515,0.00008191,0.00026676,0.05887932,-0.00041396,-0.00016754,-0.00018871,0,0,26.26000023,0
1,0.66,66,0.00187344,0.00251921,-0.99938947,0.15320919,-0.07373219,-0.00417068,-63.8117485,15.96024513,-83.25051117,-0.00603824,-0.03180502,-6.751019,0.99826515,0.00006894,0.00027397,0.05887967,-0.00109658,0.00061455,-0.00060569,0,0,26.26000023,0
1,0.67,67,0.00064963,0.0032188,-0.99941206,0.01060588,-0.00578723,-0.00333418,-64.0748291,15.46331501,-82.51972961,-0.00666218,-0.0376026,-6.75113058,0.99826503,0.00007736,0.00032415,0.05888066,0.00009454,-0.00009687,-0.00058271,0,0,26.26000023,0
1,0.68,68,0.00077271,0.00263429,-0.99905533,-0.04263163,0.01175079,-0.03793156,-64.42560577,16.16486359,-82.43203735,-0.00708894,-0.03748587,-6.7515111,0.99826479,0.00008102,0.00032292,0.05888397,-0.00010368,0.00050047,-0.00094088,0,0,26.26000023,0
1,0.69,69,0.0009264,0.00194796,-0.99815238,-0.07828246,0.02873703,-0.03772241,-64.42560577,16.16486359,-82.43203735,-0.00787215,-0.03719929,-6.75188971,0.99826455,0.00008769,0.00032002,0.05888727,-0.00025278,0.00119774,-0.00184573,0,0,26.26000023,0
1,0.7,70,0.000314,0.00279216,-0.99935836,0.00736196,0.02734777,-0.03525251,-63.89944458,15.55100822,-82.63665771,-0.00779893,-0.03692653,-6.75222921,0.99826443,0.00008692,0.00031768,0.05889022,0.00036916,0.00036426,-0.00063802,0,0,26.26000023,0
1,0.71,71,0.00006938,0.00271364,-0.99844706,0.00717853,0.00605461,0.1554438,-63.84098053,15.25869656,-82.51972961,-0.00772627,-0.03686075,-6.75068951,0.99826527,0.00008625,0.00031714,0.05887681,0.00061085,0.00043175,-0.00154983,0,0,26.26000023,0
1,0.72,72,0.00071232,0.00232779,-1.00049043,0.07814208,0.00889728,0.05151929,-64.01636505,15.75562668,-82.75357819,-0.00558629,-0.03790776,-6.75021458,0.9982655,0.00006814,0.00032736,0.05887267,-0.0000329,0.00081115,0.00049315,0,0,26.26000023,0
1,0.73,73,0.00040481,0.00336662,-0.9991973,-0.0109225,0.04197873,0.08660262,-63.98713684,15.75562668,-82.4905014,-0.00569509,-0.03748489,-6.74935961,0.99826598,0.00006887,0.00032362,0.05886522,0.00026477,-0.00025288,-0.00079715,0,0,26.26000023,0
1,0.74,74,-0.00005287,0.0027529,-0.99890321,-0.04583867,0.02539614,0.03400695,-63.98713684,15.75562668,-82.4905014,-0.0061534,-0.03722948,-6.74902439,0.9982661,0.00007273,0.00032116,0.0588623,0.00072491,0.00036561,-0.00109375,0,0,26.26000023,0
1,0.75,75,-0.00002444,0.00421755,-0.9991855,-0.02704708,-0.04445753,0.06741129,-63.139431,15.05407715,-82.51972961,-0.00642357,-0.03767159,-6.74835348,0.99826646,0.00007531,0.00032488,0.05885646,0.00069293,-0.00109493,-0.00080702,0,0,26.26000023,0
1,0.76,76,0.0004352,0.00348936,-0.99925631,0.02585233,-0.02518045,-0.00149763,-63.66559601,15.93101406,-82.28588104,-0.0061652,-0.03792308,-6.74837494,0.9982664,0.00007319,0.0003272,0.05885664,0.00023197,-0.00036482,-0.00073783,0,0,26.26000023,0
1,0.77,77,0.00052736,0.00329081,-0.99998945,0.00959557,-0.11269879,0.03141474,-63.98713684,15.93101406,-82.25665283,-0.00949102,-0.04048379,-6.74801302,0.99826658,0.00010347,0.0003478,0.0588535,0.00011939,-0.00015073,-0.00000511,0,0,26.26000023,0
1,0.78,78,0.0010165,0.0031884,-0.9994117,0.06055541,0.00944906,0.01671275,-64.10406494,15.81408882,-81.90587616,-0.00888553,-0.04038841,-6.74783564,0.99826676,0.00009815,0.00034728,0.05885196,-0.00039671,-0.00001214,-0.00058249,0,0,26.26000023,0
1,0.79,79,0.00101708,0.00286298,-0.9998731,0.07831113,-0.00951029,0.10327245,-64.10406494,15.81408882,-81.90587616,-0.00810192,-0.04047986,-6.74681044,0.99826717,0.00009137,0.00034848,0.05884302,-0.00039588,0.00029871,-0.0001221,0,0,26.26000023,0
1,0.8,80,0.00101698,0.00285115,-0.9992646,-0.00054673,0.07988557,0.09216286,-64.30867767,16.39871407,-81.90587616,-0.00810698,-0.03967768,-6.74588013,0.99826765,0.000091,0.00034149,0.05883491,-0.00038969,0.00030578,-0.00073061,0,0,26.26000023,0
1,0.81,81,0.0010195,0.00132254,-1.00038302,-0.14411137,0.0998887,-0.05118864,-64.1917572,14.20637226,-82.66588593,-0.00954857,-0.03868007,-6.74640512,0.99826741,0.00010304,0.00033206,0.05883949,-0.00037116,0.00185296,0.0003832,0,0,26.26000023,0
1,0.82,82,0.00150761,0.00181432,-0.99909651,-0.03693858,0.05073348,-0.13865553,-63.28558731,15.20023346,-82.34434509,-0.0075838,-0.02812372,-6.74762821,0.99826688,0.00008051,0.00024111,0.05885014,-0.00080768,0.00136129,-0.00090124,0,0,26.26000023,0
1,0.83,83,0.00083426,0.00239589,-0.99930227,-0.07078922,-0.05608349,-0.01932489,-63.92867661,14.44022179,-82.51972961,-0.00829201,-0.02868476,-6.74781656,0.9982667,0.00008697,0.00024563,0.05885178,-0.00000222,0.00075921,-0.00069467,0,0,26.26000023,0
1,0.84,84,0.00074308,0.00206515,-0.99949002,0.05349278,-0.08990783,-0.00216312,-63.92867661,14.44022179,-82.51972961,-0.00775725,-0.02958353,-6.74783373,0.9982667,0.00008277,0.00025373,0.05885193,0.00006955,0.00109347,-0.00050804,0,0,26.26000023,0
1,0.85,85,0.0010486,0.00218788,-0.99954838,-0.03626237,-0.02289685,0.06835715,-63.66559601,14.82022762,-82.46126556,-0.00811948,-0.02980997,-6.74714947,0.99826705,0.00008604,0.00025552,0.05884597,-0.00024721,0.00096475,-0.00044892,0,0,26.26000023,0
1,0.86,86,0.00019184,0.00269921,-0.99926865,-0.00142713,0.01281478,0.0344638,-63.84098053,15.90178299,-82.75357819,-0.00813363,-0.02968035,-6.74681044,0.99826729,0.0000861,0.00025438,0.05884302,0.00061515,0.00045367,-0.00072817,0,0,26.26000023,0
1,0.87,87,0.00098619,0.00296857,-0.9990499,-0.10768184,0.0496943,-0.12157048,-64.45483398,16.39871407,-82.87050629,-0.01257041,-0.02602853,-6.74798346,0.9982667,0.00012288,0.00022029,0.05885324,-0.0001602,0.000214,-0.00094511,0,0,26.26000023,0
1,0.88,88,0.00067961,0.00357993,-0.99922401,-0.07087734,-0.05680488,0.01541091,-64.25022125,15.69716454,-83.25051117,-0.01327923,-0.02659572,-6.74783564,0.9982667,0.00012934,0.00022487,0.05885196,0.00018874,-0.00033493,-0.00076968,0,0,26.26000023,0
1,0.89,89,0.00022012,0.00400563,-0.9976666,0.01719543,-0.03863132,0.016115,-64.22098541,15.43408298,-82.40280151,-0.01310728,-0.02698111,-6.74766493,0.99826682,0.00012804,0.00022831,0.05885047,0.00063257,-0.00076228,-0.00232638,0,0,26.26000023,0
1,0.9,90,0.00150637,0.00277712,-1.0001471,0.0916144,-0.05284461,-0.03438754,-64.22098541,15.43408298,-82.40280151,-0.01219164,-0.0275103,-6.74801064,0.9982667,0.00012034,0.00023339,0.05885348,-0.00065601,0.00045893,0.00015227,0,0,26.26000023,0
1,0.91,91,0.00110642,0.00430278,-0.99887747,0.05894871,-0.01718129,-0.03215899,-63.92867661,15.55100822,-82.51972961,-0.0116026,-0.02768275,-6.74834299,0.99826646,0.00011529,0.0002352,0.05885637,-0.00026536,-0.00108315,-0.00111341,0,0,26.26000023,0
1,0.92,92,0.00034375,0.00330465,-0.99913758,-0.04684291,-0.03588519,-0.01556587,-63.98713684,14.90792179,-82.63665771,-0.01105494,-0.03223163,-6.74857855,0.9982664,0.00011286,0.00027511,0.05885842,0.00048153,-0.00008498,-0.00085726,0,0,26.26000023,0
1,0.93,93,0.0015049,0.00367818,-0.99958593,-0.1543538,0.05008519,-0.03160536,-63.78252029,14.61560917,-82.78281403,-0.01259887,-0.03173139,-6.74889231,0.99826616,0.00012605,0.00026996,0.05886116,-0.0007387,-0.00045377,-0.00040632,0,0,26.26000023,0
1,0.94,94,0.00037424,0.00333149,-0.99895447,0.09459954,-0.03416753,-0.03236812,-63.57789993,15.72639561,-82.63665771,-0.01165329,-0.0320737,-6.74920368,0.99826604,0.00011799,0.00027342,0.05886388,0.00039326,-0.00010684,-0.00104023,0,0,26.26000023,0
1,0.95,95,0.00165945,0.00259004,-0.99990624,-0.06417242,-0.05301955,-0.03335504,-63.57789993,15.72639561,-82.63665771,-0.01229544,-0.03260459,-6.7495389,0.99826586,0.00012386,0.00027772,0.0588668,-0.00090056,0.00063633,-0.00008903,0,0,26.26000023,0
1,0.96,96,0.00135321,0.00295473,-0.99990141,0.0764104,0.00103521,-0.06647353,-64.1917572,15.72639561,-82.69511414,-0.01153199,-0.03259601,-6.75020647,0.9982655,0.00011721,0.00027804,0.05887261,-0.00059587,0.00026908,-0.00009315,0,0,26.26000023,0
1,0.97,97,0.00113962,0.00264374,-0.99954134,0.00514561,0.01551803,0.03780159,-63.72405624,16.77871895,-82.34434509,-0.01145455,-0.03349553,-6.74985409,0.99826574,0.00011699,0.00028591,0.05886954,-0.00038661,0.0005702,-0.00045437,0,0,26.26000023,0
1,0.98,98,0.00058842,0.00324683,-0.99929005,0.04127391,-0.01735089,-0.03222973,-64.39637756,16.39871407,-82.13972473,-0.01104222,-0.03366968,-6.75016642,0.9982655,0.00011349,0.00028764,0.05887226,0.00015097,-0.00003492,-0.00070454,0,0,26.26000023,0
1,0.99,99,0.00071089,0.00309073,-0.99907911,-0.03063021,0.05127252,-0.03111037,-63.54866791,16.10640144,-81.7012558,-0.01134889,-0.03315759,-6.75048637,0.99826545,0.0001159,0.00028302,0.05887505,0.00003118,0.0001173,-0.00091588,0,0,26.26000023,0
1,1,100,0.00086288,0.00366991,-0.99916136,0.00692261,0.01861965,-0.11742135,-63.54866791,16.10640144,-81.7012558,-0.01128069,-0.03297482,-6.75167704,0.99826479,0.00011522,0.00028146,0.05888543,-0.00011608,-0.00045952,-0.00083159,0,0,26.26000023,0
1,1.01,101,0.00067958,0.00357579,-0.99901104,-0.09563854,0.0316079,0.0247127,-63.72405624,15.20023346,-82.16895294,-0.01223707,-0.03265753,-6.75142097,0.99826485,0.00012338,0.00027821,0.05888319,0.00007727,-0.00035124,-0.00098252,0,0,26.26000023,0
1,1.02,102,0.00049823,0.0021737,-0.99881941,0.08386461,-0.1222645,0.00489703,-63.75328827,15.17100239,-82.8997345,-0.00674697,-0.02814041,-6.75126791,0.99826491,0.00007324,0.00024168,0.05888184,0.00027098,0.00102784,-0.00117865,0,0,26.26000023,0
1,1.03,103,0.00098585,0.00317953,-0.99895543,-0.09580756,0.05001546,-0.02704046,-63.5194397,15.22946453,-81.99356842,-0.00770545,-0.02764072,-6.75154209,0.99826479,0.00008133,0.00023683,0.05888423,-0.0001491,-0.00003899,-0.00103896,0,0,26.26000023,0
1,1.04,104,0.00098582,0.00328253,-0.9995625,-0.00863131,0.1400158,-0.1465095,-63.57789993,15.84332085,-82.84127045,-0.00779323,-0.02624476,-6.75300503,0.99826407,0.00008138,0.00022463,0.05889698,-0.00012412,-0.00013012,-0.00043158,0,0,26.26000023,0
1,1.05,105,0.00061942,0.00304651,-0.99993205,-0.11240963,-0.02053811,0.0235904,-63.57789993,15.84332085,-82.84127045,-0.00891728,-0.02644899,-6.75276232,0.99826413,0.00009128,0.00022583,0.05889487,0.0002448,0.00012053,-0.00006333,0,0,26.26000023,0
1,1.06,106,0.0013228,0.00268796,-0.99868816,0.06451461,-0.01739915,-0.04517416,-63.43174362,15.69716454,-83.45513153,-0.00827269,-0.02662402,-6.75320768,0.99826401,0.00008575,0.00022768,0.05889875,-0.00045969,0.00047418,-0.00130727,0,0,26.26000023,0
1,1.07,107,0.00083367,0.00275644,-0.99908388,-0.05887087,-0.0554016,0.05783721,-64.1917572,15.9894762,-83.25051117,-0.01135682,-0.02273193,-6.75263929,0.99826425,0.00011062,0.00019219,0.0588938,0.0000399,0.0004211,-0.00091207,0,0,26.26000023,0
1,1.08,108,0.00117099,0.00195209,-0.99836481,0.09904864,0.03563787,-0.07871691,-63.78252029,16.74948883,-83.25051117,-0.01036724,-0.02237766,-6.75341892,0.99826384,0.00010182,0.00018961,0.05890059,-0.00024112,0.00124783,-0.00163308,0,0,26.26000023,0
1,1.09,109,0.00117003,0.00269683,-0.99914491,0.06343468,0.03313446,0.02534909,-64.1917572,16.0479393,-83.25051117,-0.00973281,-0.02204514,-6.75316715,0.99826396,0.00009612,0.00018704,0.05889839,-0.0002301,0.00049363,-0.00085079,0,0,26.26000023,0
1,1.1,110,0.00113969,0.00258,-0.99939013,0.01036622,0.0322649,0.04250487,-64.16252136,16.63256264,-83.16281891,-0.00962892,-0.02172075,-6.75275278,0.99826419,0.00009505,0.00018427,0.05889478,-0.00019524,0.00060473,-0.00060596,0,0,26.26000023,0
1,1.11,111,0.00080274,0.00296503,-0.99886775,-0.02213137,0.11438874,0.09020172,-64.16252136,16.63256264,-83.16281891,-0.00984952,-0.0205736,-6.75183868,0.99826467,0.00009638,0.00017417,0.05888682,0.00015444,0.00021754,-0.0011276,0,0,26.26000023,0
1,1.12,112,0.00120208,0.00176183,-0.99952406,0.05214574,-0.07334877,-0.01757882,-63.60713196,16.22332573,-82.28588104,-0.00747935,-0.02073572,-6.75196266,0.99826461,0.00007581,0.0001768,0.0588879,-0.0002372,0.00141434,-0.00047445,0,0,26.26000023,0
1,1.13,113,0.00153772,0.00218906,-0.99960816,0.15754803,-0.03804083,0.0009144,-64.13329315,14.70330334,-82.81204224,-0.00590403,-0.02111571,-6.75196314,0.99826461,0.00006228,0.00018092,0.0588879,-0.00057632,0.00094252,-0.00038856,0,0,26.26000023,0
1,1.14,114,0.00092683,0.00181789,-0.99928027,0.06857155,-0.00423796,0.00126194,-64.39637756,14.93715286,-82.4905014,-0.00521849,-0.02115768,-6.75194931,0.99826455,0.00005633,0.00018163,0.05888777,0.00002967,0.00129219,-0.00071833,0,0,26.26000023,0
1,1.15,115,0.00083268,0.00332084,-0.99840587,0.03291353,-0.00710211,0.12269588,-63.75328827,15.84332085,-82.69511414,-0.00488834,-0.02122449,-6.75073528,0.99826527,0.00005349,0.00018239,0.0588772,0.00012468,-0.00021988,-0.00158839,0,0,26.26000023,0
1,1.16,116,0.00043529,0.00342739,-0.99919635,-0.00225983,-0.00599852,0.05308283,-63.75328827,15.84332085,-82.69511414,-0.00491056,-0.02128244,-6.75019789,0.9982655,0.00005371,0.00018288,0.05887251,0.00051834,-0.00032758,-0.00079808,0,0,26.26000023,0
1,1.17,117,0.00049575,0.00395585,-0.99979699,-0.09157439,0.06461947,-0.05007596,-64.42560577,15.60947037,-82.54895782,-0.01014268,-0.0260296,-6.75083256,0.99826527,0.00010173,0.00022155,0.05887806,0.00044397,-0.00082405,-0.00019583,0,0,26.26000023,0
1,1.18,118,0.00092447,0.00332971,-0.99886203,-0.00195141,-0.00347364,-0.06849246,-64.01636505,16.01870728,-82.63665771,-0.01016295,-0.02606617,-6.75151014,0.99826479,0.00010193,0.00022185,0.05888396,-0.00005273,-0.00013995,-0.00113203,0,0,26.26000023,0
1,1.19,119,0.00083351,0.00280952,-0.99868739,-0.00170143,-0.04101016,0.06974966,-64.04560089,16.07716942,-82.54895782,-0.01017954,-0.02647365,-6.75081635,0.99826527,0.00010228,0.0002254,0.05887792,0.00003407,0.00038234,-0.00130832,0,0,26.26000023,0
1,1.2,120,0.00083316,0.00319609,-0.99980766,0.03335413,-0.00349509,-0.05098316,-64.30867767,16.25255775,-82.78281403,-0.00984658,-0.02650985,-6.75131798,0.99826491,0.0000994,0.00022588,0.05888229,0.0000298,-0.00000365,-0.00018695,0,0,26.26000023,0
1,1.21,121,0.00031581,0.00153906,-0.99901193,0.05807301,-0.07357737,0.03537974,-64.30867767,16.25255775,-82.78281403,-0.00926571,-0.02724414,-6.75097704,0.99826515,0.00009472,0.00023258,0.05887932,0.00054166,0.00163995,-0.0009883,0,0,26.26000023,0
1,1.22,122,0.0011706,0.00226309,-0.99872535,0.1071447,-0.05371156,-0.05063574,-64.0748291,14.99561501,-82.4905014,-0.00451602,-0.0270061,-6.75144339,0.99826491,0.00005322,0.00023294,0.05888337,-0.00032497,0.00088102,-0.00127161,0,0,26.26000023,0
1,1.23,123,0.00159752,0.00306978,-0.99956435,0.01687519,0.04867177,-0.01415021,-63.84098053,14.82022762,-82.4905014,-0.00434754,-0.02651942,-6.7515769,0.99826479,0.0000515,0.00022879,0.05888453,-0.00073727,0.0000218,-0.00042958,0,0,26.26000023,0
1,1.24,124,0.00135318,0.00284464,-0.99892926,0.05368689,-0.03797705,0.00160641,-63.66559601,15.3171587,-82.16895294,-0.00381082,-0.02689876,-6.75155354,0.99826479,0.00004702,0.00023237,0.05888432,-0.00049067,0.00024201,-0.0010657,0,0,26.26000023,0
1,1.25,125,0.00153675,0.00279095,-0.99929482,0.05381188,-0.05674531,0.0707275,-63.75328827,15.63870239,-82.81204224,-0.00327228,-0.02746364,-6.75085497,0.99826515,0.00004262,0.00023757,0.05887824,-0.00068871,0.00028421,-0.0007,0,0,26.26000023,0
1,1.26,126,0.00071105,0.0029668,-0.99895924,0.07080328,-0.00279576,-0.01498974,-63.75328827,15.63870239,-82.81204224,-0.00256455,-0.0274917,-6.7510128,0.99826515,0.00003647,0.00023818,0.05887961,0.00013364,0.00009497,-0.00103619,0,0,26.26000023,0
1,1.27,127,0.0005599,0.00205546,-1.00055563,0.03515245,0.01419046,-0.01478061,-64.33791351,15.69716454,-82.60742188,0.00107207,-0.02979414,-6.75115395,0.99826509,0.00000597,0.0002601,0.05888084,0.00027651,0.00098752,0.00055727,0,0,26.26000023,0
1,1.28,128,0.00236281,0.00240769,-0.99990743,-0.07223345,0.08139253,0.03830104,-64.22098541,15.52177715,-82.57819366,0.00034989,-0.02897869,-6.75076008,0.99826527,0.00001184,0.00025263,0.05887741,-0.00154794,0.0005998,-0.00008748,0,0,26.26000023,0
1,1.29,129,0.0016288,0.00254546,-0.99917656,-0.01899594,0.06385454,0.07289845,-64.25022125,16.07716942,-82.28588104,0.00016039,-0.02833756,-6.75003815,0.99826562,0.00001316,0.00024695,0.05887112,-0.00080145,0.00046779,-0.0008189,0,0,26.26000023,0
1,1.3,130,0.00153532,0.00376757,-0.99949324,-0.01778383,0.01440301,-0.04972854,-64.6009903,15.55100822,-82.72434998,-0.00001803,-0.02819464,-6.75052452,0.99826539,0.00001464,0.00024561,0.05887535,-0.00069918,-0.00075167,-0.00049869,0,0,26.26000023,0
1,1.31,131,0.00116925,0.00324858,-0.99938005,-0.12506501,0.00954622,0.01682285,-64.33791351,15.34638977,-82.60742188,-0.00126872,-0.02809826,-6.75034571,0.9982655,0.00002549,0.00024413,0.0588738,-0.00033339,-0.00021907,-0.00061389,0,0,26.26000023,0
1,1.32,132,0.00095641,0.00238229,-0.99860227,0.03347357,-0.00684549,-0.07222679,-64.33791351,15.34638977,-82.60742188,0.00472656,-0.0272874,-6.7510457,0.99826509,-0.00002715,0.00024014,0.05887988,-0.00011919,0.00063207,-0.00139454,0,0,26.26000023,0
1,1.33,133,0.00113935,0.00279037,-0.99926525,-0.00343345,0.05923156,0.06797719,-63.46097565,14.84945869,-82.3735733,0.00469265,-0.0266927,-6.75036812,0.99826539,-0.00002717,0.00023494,0.05887398,-0.00028661,0.00014231,-0.00073015,0,0,26.26000023,0
1,1.34,134,0.00034484,0.00253839,-0.99881428,-0.09257895,0.11144198,0.01657155,-63.87021255,13.97252274,-82.25665283,0.00376688,-0.02557744,-6.75021029,0.9982655,-0.00001967,0.00022475,0.05887261,0.00052594,0.00040368,-0.00118297,0,0,26.26000023,0
1,1.35,135,0.00126162,0.0028612,-0.99978125,-0.23353676,0.11369201,-0.15767315,-63.8117485,14.73253441,-82.11049652,0.00142995,-0.02444481,-6.7517724,0.99826467,0.0000001,0.00021369,0.05888622,-0.00036913,0.00011689,-0.0002138,0,0,26.26000023,0
1,1.36,136,0.00181301,0.0017818,-0.99742258,-0.02067483,0.04281857,0.01545222,-63.72405624,16.07716942,-82.69511414,0.00122319,-0.0240158,-6.75162935,0.99826479,0.00000169,0.00020984,0.05888498,-0.00091079,0.00120674,-0.00257495,0,0,26.26000023,0
1,1.37,137,0.00004074,0.00204141,-1.00296104,-0.00278693,0.02494133,0.04990816,-63.72405624,16.07716942,-82.69511414,0.00316822,-0.0284952,-6.75103521,0.99826503,-0.00001296,0.00024986,0.05887979,0.0008519,0.000958,0.00296195,0,0,26.26000023,0
1,1.38,138,0.00037519,0.0028689,-1.00017869,0.05019343,0.02508948,0.0674882,-63.87021255,15.84332085,-82.57819366,0.00367055,-0.02824195,-6.75036812,0.99826539,-0.00001747,0.00024792,0.05887398,0.00045842,0.00008758,0.00018258,0,0,26.26000023,0
1,1.39,139,0.00101662,0.00291748,-0.99798548,0.01411637,0.07816943,-0.00107316,-64.1917572,15.96024513,-82.28588104,0.00381159,-0.02745991,-6.75039196,0.99826545,-0.0000191,0.00024118,0.05887419,-0.00017755,0.00002674,-0.00200967,0,0,26.26000023,0
1,1.4,140,0.00043656,0.00246933,-0.99838907,-0.0212773,0.07746951,0.0161533,-64.54253387,15.40485191,-82.43203735,0.00359877,-0.0266844,-6.75023746,0.9982655,-0.00001764,0.00023431,0.05887284,0.00041581,0.00047981,-0.00160816,0,0,26.26000023,0
1,1.41,141,0.00098526,0.00382341,-1.00080204,-0.07289205,0.07339086,-0.02023414,-63.60713196,15.75562668,-81.99356842,0.00286951,-0.02595068,-6.75042534,0.99826545,-0.00001166,0.00022754,0.05887449,-0.00011484,-0.0008579,0.00080966,0,0,26.26000023,0
1,1.42,142,0.00037338,0.0039458,-0.99928004,-0.0145732,-0.02704414,0.04337832,-63.60713196,15.75562668,-81.99356842,-0.00056495,-0.02802389,-6.74995041,0.99826568,0.00001932,0.00024384,0.05887035,0.00049001,-0.00096618,-0.00071293,0,0,26.26000023,0
1,1.43,143,0.00034406,0.00301931,-0.99853319,-0.01384575,-0.08046336,0.11179828,-63.95790482,14.14791012,-81.84741211,-0.00070264,-0.02882475,-6.74882746,0.99826628,0.00002093,0.00025075,0.05886057,0.00048219,0.00000739,-0.00146258,0,0,26.26000023,0
1,1.44,144,0.00080229,0.00319869,-0.99837732,0.1107078,-0.09227312,-0.0964721,-64.0748291,15.84332085,-82.08126068,0.0004035,-0.02975001,-6.74979258,0.99826574,0.00001177,0.00025937,0.05886897,0.00000878,-0.00018323,-0.00161721,0,0,26.26000023,0
1,1.45,145,0.00162792,0.00326395,-1.00016999,0.01935836,0.06064383,0.01053665,-64.0748291,15.63870239,-82.16895294,0.00059703,-0.02914287,-6.74968338,0.9982658,0.00000977,0.00025419,0.05886802,-0.00081642,-0.00025673,0.0001768,0,0,26.26000023,0
1,1.46,146,0.00162706,0.00366517,-0.99891633,0.00138233,0.07779969,0.01081646,-63.87021255,15.5802393,-82.43203735,0.00061078,-0.02836418,-6.74956608,0.99826592,0.00000925,0.00024741,0.05886701,-0.00080071,-0.00066113,-0.00107575,0,0,26.26000023,0
1,1.47,147,0.00110895,0.00277417,-0.99999595,-0.03405539,0.07673903,0.04541086,-63.87021255,15.5802393,-82.43203735,0.00174788,-0.0298135,-6.74909735,0.9982661,0.00000009,0.00026062,0.05886292,-0.00027954,0.00022871,0.00000047,0,0,26.26000023,0
1,1.48,148,0.00043627,0.00268502,-0.99853796,-0.05065025,0.02603582,-0.02518309,-64.27944946,15.43408298,-81.96434021,0.00124104,-0.02955352,-6.74935102,0.99826592,0.00000437,0.00025809,0.05886512,0.00037265,0.00030539,-0.00145865,0,0,26.26000023,0
1,1.49,149,0.00092545,0.00265816,-0.99871993,-0.01461726,-0.02740485,0.0607462,-64.36714172,15.60947037,-82.54895782,0.00109517,-0.02982537,-6.74874926,0.99826634,0.00000578,0.00026039,0.05885988,-0.00012018,0.00033303,-0.00127617,0,0,26.26000023,0
1,1.5,150,0.00074215,0.00267118,-0.99938965,0.07423421,-0.04243944,-0.00872242,-64.16252136,15.37562084,-81.87664032,0.00183728,-0.03024965,-6.74882793,0.99826628,-0.00000047,0.00026446,0.05886057,0.00005947,0.0003184,-0.00060664,0,0,26.26000023,0
1,1.51,151,0.00117101,0.00209612,-0.99951911,0.01927024,0.05992242,0.04527245,-64.22098541,16.07716942,-82.3735733,0.00203017,-0.02964867,-6.74837255,0.99826652,-0.00000246,0.00025933,0.05885661,-0.00036697,0.00088647,-0.00047837,0,0,26.26000023,0
1,1.52,152,0.00141508,0.00253873,-1.00039446,0.02043758,-0.01834616,0.11047474,-64.22098541,16.07716942,-82.43203735,0.00437143,-0.02052864,-6.74743223,0.99826699,-0.00002754,0.00018108,0.05884841,-0.00056359,0.00043607,0.00039856,0,0,26.26000023,0
1,1.53,153,0.00031357,0.00331211,-1.00108516,-0.01477984,-0.0176033,0.05822962,-64.10406494,15.3171587,-82.43203735,0.004224,-0.02070258,-6.7468605,0.99826729,-0.00002617,0.00018252,0.05884343,0.00065218,-0.00036686,0.00109016,0,0,26.26000023,0
1,1.54,154,0.00064926,0.00335596,-0.99864918,0.00276997,0.0013346,-0.01082078,-63.98713684,14.20637226,-82.69511414,0.00425143,-0.02068916,-6.7469697,0.99826717,-0.00002641,0.00018242,0.05884438,0.00031499,-0.00041466,-0.00134523,0,0,26.26000023,0
1,1.55,155,0.0008026,0.00309073,-0.99907893,-0.04862328,-0.10456988,0.05633545,-64.36714172,15.46331501,-82.95819855,0.00376559,-0.02173279,-6.74639654,0.99826753,-0.00002164,0.00019126,0.05883939,0.00015021,-0.00014496,-0.00091613,0,0,26.26000023,0
1,1.56,156,0.00034304,0.00382897,-0.99952531,0.07381446,-0.01495171,-0.02825636,-64.1917572,14.64484024,-82.54895782,0.00450329,-0.02188277,-6.74667358,0.99826729,-0.00002799,0.00019294,0.05884179,0.00060368,-0.00088552,-0.00046808,0,0,26.26000023,0
1,1.57,157,0.0011082,0.00340031,-1.00092995,0.07437287,-0.04996336,-0.01158957,-64.33791351,15.96024513,-82.46126556,0.00365218,-0.0226132,-6.74679232,0.99826729,-0.0000202,0.00019887,0.05884284,-0.00016618,-0.00046168,0.00093625,0,0,26.26000023,0
1,1.58,158,0.00022142,0.00304994,-0.99698097,0.07282265,0.03630328,0.00753106,-64.33791351,15.96024513,-82.46126556,0.0043803,-0.02224956,-6.74672079,0.99826735,-0.00002673,0.00019608,0.05884221,0.00071257,-0.00011131,-0.00301489,0,0,26.26000023,0
1,1.59,159,0.00101903,0.00176633,-1.00131977,-0.06767206,-0.01703004,0.00591375,-64.30867767,15.90178299,-83.25051117,0.00370347,-0.02241932,-6.74667263,0.99826735,-0.00002075,0.00019721,0.05884179,-0.00008065,0.00118797,0.00132109,0,0,26.26000023,0
1,1.6,160,0.00022181,0.00291632,-0.99792635,0.00341649,-0.03295565,-0.02888974,-64.8348465,15.63870239,-82.22741699,0.0037372,-0.02274935,-6.7469635,0.99826717,-0.00002087,0.0002001,0.05884433,0.00070778,0.00002796,-0.00206991,0,0,26.26000023,0
1,1.61,161,0.00205673,0.00261274,-0.99950939,-0.03202123,-0.03401627,0.00570463,-64.74714661,16.22332573,-82.02279663,0.00341686,-0.02308897,-6.7468996,0.99826717,-0.00001791,0.00020289,0.05884376,-0.00113237,0.00033956,-0.00048541,0,0,26.26000023,0
1,1.62,162,0.00095695,0.00215809,-0.99957943,0.14902383,-0.08222381,-0.03422251,-64.13329315,15.66793346,-82.05203247,0.00736116,-0.02352958,-6.74722528,0.99826705,-0.00005204,0.00020876,0.05884659,-0.00004254,0.00077117,-0.00041809,0,0,26.26000023,0
1,1.63,163,0.0008954,0.00228994,-0.9985429,0.1306434,0.0220098,-0.03380552,-64.13329315,15.66793346,-82.05203247,0.00866714,-0.0233101,-6.7475667,0.99826694,-0.00006353,0.00020752,0.05884957,0.00001825,0.00058112,-0.00145432,0,0,26.26000023,0
1,1.64,164,0.00068146,0.00229467,-0.99878681,0.0943829,0.0537966,0.08832944,-64.33791351,15.49254608,-82.3735733,0.00961162,-0.02276923,-6.74670124,0.99826735,-0.00007204,0.00020329,0.05884203,0.00024213,0.000556,-0.0012107,0,0,26.26000023,0
1,1.65,165,0.00129188,0.00314653,-1.00038552,0.00648638,0.03706587,0.01815374,-64.1917572,15.05407715,-82.19818878,0.00967648,-0.02239765,-6.74651337,0.99826741,-0.0000728,0.00020009,0.05884039,-0.00036055,-0.00029757,0.00039148,0,0,26.26000023,0
1,1.66,166,0.0004973,0.00295771,-1.00005531,-0.04622959,0.0390819,-0.10363369,-64.48406982,15.66793346,-82.25665283,0.00921304,-0.02200942,-6.74754953,0.99826694,-0.00006896,0.00019647,0.05884942,0.00044488,-0.0001008,0.00005954,0,0,26.26000023,0
1,1.67,167,0.00107778,0.00295615,-0.99841082,-0.01075501,0.02065288,-0.03437126,-64.51329803,15.49254608,-82.40280151,0.00061322,-0.01990613,-6.74801016,0.99826664,0.00000488,0.00017373,0.05885345,-0.00012589,-0.00006527,-0.00158419,0,0,26.26000023,0
1,1.68,168,0.00086329,0.0033964,-0.99916548,0.06089195,-0.03028435,-0.05250793,-64.51329803,15.49254608,-82.40280151,0.00122146,-0.02021016,-6.74852657,0.99826634,-0.00000026,0.00017669,0.05885794,0.00011128,-0.00039571,-0.00082846,0,0,26.26000023,0
1,1.69,169,0.00077292,0.00247997,-0.998936,0.04273967,-0.01457131,0.01724353,-64.63022614,16.01870728,-82.16895294,0.00164885,-0.02035496,-6.74834919,0.99826646,-0.00000391,0.00017817,0.0588564,0.00019673,0.00050481,-0.00106098,0,0,26.26000023,0
1,1.7,170,0.00037419,0.00343212,-0.9994399,-0.01015255,-0.01399805,-0.03507231,-64.89330292,16.19409561,-82.46126556,0.0015468,-0.02049562,-6.74870491,0.99826628,-0.00000295,0.00017934,0.0588595,0.00059582,-0.00044477,-0.00055465,0,0,26.26000023,0
1,1.71,171,0.00092471,0.00314382,-0.9986822,-0.08102079,0.00373104,-0.08710831,-64.04560089,15.78485775,-82.05203247,0.0007356,-0.02046055,-6.74958372,0.99826586,0.0000041,0.00017862,0.05886716,0.00004567,-0.0001492,-0.00131243,0,0,26.26000023,0
1,1.72,172,0.00132246,0.00314772,-1.00044632,-0.08902883,0.07534032,-0.13482499,-64.22098541,16.63256264,-82.22741699,-0.00208237,-0.01337768,-6.75094366,0.99826515,0.00002501,0.00011547,0.05887901,-0.00031606,-0.00012082,0.0004522,0,0,26.26000023,0
1,1.73,173,0.00062014,0.00248766,-0.99933177,-0.02536024,0.0566723,0.02440326,-64.22098541,16.63256264,-82.22741699,-0.00233584,-0.01280983,-6.75070429,0.99826527,0.00002693,0.00011039,0.05887692,0.00047706,0.00056532,-0.0006653,0,0,26.26000023,0
1,1.74,174,0.00037397,0.00362038,-0.99974138,0.01032746,0.02019642,0.12805098,-63.72405624,14.82022762,-82.05203247,-0.00223134,-0.01260354,-6.74940872,0.99826598,0.00002591,0.00010865,0.05886564,0.00072893,-0.00056718,-0.00025267,0,0,26.26000023,0
1,1.75,175,0.0007104,0.00353334,-0.999955,-0.09570695,0.05887943,-0.11482282,-64.22098541,14.35252857,-82.28588104,-0.00318986,-0.01201789,-6.75056505,0.99826539,0.00003396,0.00010306,0.05887571,0.00040434,-0.00046813,-0.00003884,0,0,26.26000023,0
1,1.76,176,0.00187435,0.00212449,-1.00097775,0.01045964,0.02127851,0.07594725,-64.51329803,15.75562668,-82.11049652,-0.00308458,-0.01180239,-6.74979782,0.9982658,0.00003293,0.00010123,0.05886903,-0.00075281,0.00095276,0.00098129,0,0,26.26000023,0
1,1.77,177,0.00098584,0.00303609,-0.99783164,-0.13154121,0.05457251,0.07608268,-64.04560089,16.07716942,-81.5843277,-0.01464165,-0.01201228,-6.7493124,0.99826598,0.00013372,0.00009712,0.0588648,0.00013478,0.00008693,-0.00216333,0,0,26.26000023,0
1,1.78,178,0.00058859,0.00305266,-0.99868429,-0.05993113,0.02312494,-0.04591087,-64.63022614,16.63256264,-81.5843277,-0.01524162,-0.01178217,-6.74977922,0.99826574,0.00013883,0.00009481,0.05886888,0.00053165,0.00022451,-0.00131113,0,0,26.26000023,0
1,1.79,179,0.00113904,0.00293345,-0.99880666,-0.05899057,-0.04834112,0.05689438,-64.63022614,16.63256264,-81.5843277,-0.01583107,-0.01226333,-6.74920845,0.9982661,0.00014421,0.0000987,0.05886391,-0.00002392,0.00035365,-0.00118832,0,0,26.26000023,0
1,1.8,180,0.00074312,0.00206929,-0.99970299,0.06525456,-0.06267579,-0.02980076,-64.16252136,16.36948204,-82.08126068,-0.01517901,-0.01289068,-6.74950886,0.99826586,0.00013885,0.0001045,0.05886652,0.00036355,0.00121687,-0.00029519,0,0,26.26000023,0
1,1.81,181,0.00077167,0.0034767,-1.00016868,0.02904533,-0.01067791,-0.04625843,-64.01636505,15.96024513,-81.99356842,-0.01488922,-0.01299856,-6.74996805,0.99826574,0.00013639,0.00010559,0.05887052,0.0003285,-0.00019813,0.00017482,0,0,26.26000023,0
1,1.82,182,0.00126157,0.00271421,-0.99847496,-0.02276237,-0.01329028,0.02285719,-64.63022614,15.78485775,-81.52587128,-0.01785751,-0.00954873,-6.74970198,0.99826586,0.00016047,0.00007401,0.0588682,-0.00015168,0.00057455,-0.00152063,0,0,26.26000023,0
1,1.83,183,0.00031345,0.00305029,-0.99856323,-0.01892882,0.00169233,0.04014401,-64.10406494,14.79099655,-81.78894806,-0.01804653,-0.00953006,-6.74929476,0.99826598,0.00016211,0.00007375,0.05886465,0.00084318,0.00027499,-0.00143263,0,0,26.26000023,0
1,1.84,184,0.00046678,0.00296244,-1.00029874,-0.07099828,-0.03058186,-0.09971239,-64.10406494,14.79099655,-81.78894806,-0.01875781,-0.00983881,-6.75028324,0.9982655,0.00016846,0.00007607,0.05887327,0.0006903,0.00038136,0.00030298,0,0,26.26000023,0
1,1.85,185,0.00077436,0.00157654,-0.99937558,-0.07078517,-0.04862873,-0.06532717,-64.57176208,13.5925169,-82.25665283,-0.01946657,-0.01032689,-6.75092316,0.99826515,0.00017489,0.00007996,0.05887885,0.00037471,0.00177453,-0.00062397,0,0,26.26000023,0
1,1.86,186,0.0002839,0.00252574,-0.99972755,0.03521238,-0.0678221,0.07368979,-63.49020767,14.93715286,-82.08126068,-0.01911378,-0.01100226,-6.75019073,0.99826556,0.00017216,0.00008603,0.05887246,0.00085379,0.00082794,-0.0002698,0,0,26.26000023,0
1,1.87,187,0.00068205,0.00207638,-1.00006819,0.01637672,0.00167088,0.05765336,-64.36714172,15.40485191,-81.93510437,-0.01238416,-0.0157931,-6.74958611,0.99826586,0.000116,0.00013122,0.05886719,0.00043171,0.00124135,0.00006995,0,0,26.26000023,0
1,1.88,188,0.00074213,0.00270453,-0.99954128,-0.01923005,0.0190178,0.04049457,-64.7179184,16.0479393,-81.84741211,-0.0125762,-0.01560124,-6.74917889,0.9982661,0.00011757,0.00012945,0.05886365,0.0003113,0.00053289,-0.00045488,0,0,26.26000023,0
1,1.89,189,0.00074268,0.00230354,-0.99924302,-0.03591304,-0.03240681,0.00463641,-64.7179184,16.0479393,-81.84741211,-0.01293541,-0.0159248,-6.74914074,0.9982661,0.00012087,0.00013208,0.05886331,0.00030919,0.00093393,-0.0007544,0,0,26.26000023,0
1,1.9,190,0.00037558,0.00230969,-0.99799597,0.03491834,-0.03064625,-0.04718449,-64.54253387,16.3110199,-81.40894318,-0.01258689,-0.01623238,-6.74959803,0.99826592,0.00011799,0.00013494,0.05886731,0.00066842,0.00092486,-0.00200183,0,0,26.26000023,0
1,1.91,191,0.00061972,0.00283082,-0.9997831,-0.07018989,-0.10313004,0.05519656,-64.51329803,16.39871407,-81.29202271,-0.01328837,-0.0172615,-6.74903345,0.99826622,0.00012463,0.00014355,0.05886239,0.00041343,0.00041527,-0.00021286,0,0,26.26000023,0
1,1.92,192,0.00049876,0.00201975,-1.00028241,0.05405524,-0.1174647,-0.03149852,-64.65945435,15.90178299,-81.96434021,-0.01397936,-0.02294567,-6.74945164,0.99826586,0.00013357,0.00019271,0.05886602,0.00049693,0.00123078,0.00028383,0,0,26.26000023,0
1,1.93,193,0.00037538,0.0027134,-0.99999845,0.11190581,-0.05723861,0.04324663,-64.22098541,14.61560917,-81.78894806,-0.01286006,-0.02351626,-6.74901295,0.9982661,0.00012411,0.00019826,0.05886221,0.00054061,0.00053075,0.00000185,0,0,26.26000023,0
1,1.94,194,0.00016021,0.00325534,-0.99816483,-0.03168214,0.0818117,-0.04135427,-64.22098541,14.61560917,-81.78894806,-0.01317742,-0.02269911,-6.74943495,0.99826586,0.00012646,0.00019097,0.05886588,0.0007615,-0.00001205,-0.00183041,0,0,26.26000023,0
1,1.95,195,0.00019181,0.00283792,-1.00014913,-0.04763767,-0.02303209,-0.00879237,-63.84098053,15.3171587,-82.13972473,-0.01365401,-0.02292933,-6.74951267,0.99826586,0.00013073,0.00019273,0.05886656,0.00073621,0.00041594,0.00015261,0,0,26.26000023,0
1,1.96,196,0.00061964,0.00285826,-0.99963057,-0.0475936,-0.02267139,-0.02616028,-63.75328827,15.69716454,-82.3735733,-0.01413035,-0.02315652,-6.74978256,0.99826574,0.00013499,0.00019447,0.05886891,0.00030286,0.00040543,-0.00036532,0,0,26.26000023,0
1,1.97,197,0.00058937,0.0025009,-0.99844915,-0.08350162,0.012001,-0.04296853,-64.01636505,15.78485775,-81.73048401,-0.02460342,-0.02950134,-6.7503953,0.99826539,0.00022949,0.00024436,0.05887428,0.00030628,0.0008097,-0.00154781,0,0,26.26000023,0
1,1.98,198,0.00080198,0.00355427,-0.99946755,0.04013386,0.01246693,-0.00773777,-64.1917572,16.34025192,-81.87664032,-0.02420235,-0.02937657,-6.7504797,0.99826533,0.00022593,0.00024348,0.05887502,0.00000947,-0.00011377,-0.00052592,0,0,26.26000023,0
1,1.99,199,0.00000867,0.00251274,-0.99905884,-0.01323583,0.02892284,0.00976856,-64.39637756,14.14791012,-82.28588104,-0.02433482,-0.02908661,-6.75038481,0.99826545,0.00022694,0.00024089,0.05887419,0.00080662,0.00092418,-0.00093879,0,0,26.26000023,0
1,2,200,0.00092562,0.00264197,-0.99945056,0.00409368,0.04605723,0.02755769,-64.39637756,14.14791012,-82.28588104,-0.02429381,-0.02862471,-6.75010824,0.9982655,0.00022634,0.00023688,0.05887178,-0.00010102,0.00080083,-0.00054546,0,0,26.26000023,0
1,2.01,201,0.00095697,0.00219676,-1.00000489,-0.06669364,0.04465736,0.06201068,-64.39637756,16.01870728,-81.93510437,-0.02496039,-0.02817562,-6.74947596,0.99826586,0.00023192,0.00023263,0.05886626,-0.00012598,0.00125082,0.0000076,0,0,26.26000023,0
1,2.02,202,0.00117055,0.00250598,-1.0002737,0.05871955,-0.01948951,-0.12994342,-63.87021255,16.22332573,-82.08126068,-0.02177583,-0.02546111,-6.75069332,0.99826527,0.00020278,0.00021062,0.05887686,-0.00032421,0.00093331,0.00027759,0,0,26.26000023,0
1,2.03,203,0.00055893,0.00251509,-0.99917936,-0.01960263,-0.02319452,-0.00746717,-63.08097076,15.40485191,-82.31510925,-0.02197212,-0.02569291,-6.7507596,0.99826515,0.00020461,0.00021253,0.05887744,0.00032106,0.00088041,-0.00081757,0,0,26.26000023,0
1,2.04,204,0.00037456,0.00311876,-0.99895769,0.07300349,-0.05566527,-0.07686813,-64.13329315,14.96638393,-81.96434021,-0.02124289,-0.02625179,-6.75152063,0.99826479,0.00019855,0.00021778,0.05888408,0.00049758,0.00027033,-0.00103766,0,0,26.26000023,0
1,2.05,205,0.00049751,0.0028028,-0.99990553,0.05592396,-0.11033623,0.04358486,-64.13329315,14.96638393,-81.96434021,-0.02068343,-0.02735328,-6.75108624,0.99826503,0.00019424,0.00022766,0.05888029,0.00036131,0.00058023,-0.00009065,0,0,26.26000023,0
1,2.06,206,0.00181208,0.00270746,-0.99969107,-0.05257155,0.04673953,-0.05789195,-63.31481934,14.67407131,-81.26278687,-0.02120978,-0.02688748,-6.7516551,0.99826467,0.00019859,0.00022333,0.05888524,-0.0009576,0.0006762,-0.00030362,0,0,26.26000023,0
1,2.07,207,0.00031426,0.00271518,-1.00008976,-0.05304903,0.06262219,0.01193021,-63.8117485,15.17100239,-81.87664032,-0.01941218,-0.02413197,-6.75147724,0.99826479,0.00018151,0.00020025,0.05888369,0.0005595,0.00067261,0.00009318,0,0,26.26000023,0
1,2.08,208,0.00080321,0.00283969,-1.00023901,-0.00014962,0.0818993,-0.05697868,-64.10406494,15.66793346,-81.40894318,-0.01941439,-0.02331451,-6.75204945,0.99826455,0.00018111,0.00019313,0.05888867,0.00011278,0.00051504,0.00024344,0,0,26.26000023,0
1,2.09,209,0.00110711,0.00370467,-0.99782133,-0.05098447,-0.05901677,0.02684432,-64.33791351,16.22332573,-82.19818878,-0.01992416,-0.02390338,-6.75177526,0.99826461,0.00018585,0.000198,0.05888628,-0.00019605,-0.00034744,-0.00217129,0,0,26.26000023,0
1,2.1,210,0.00080245,0.00335869,-1.00035298,0.03639771,-0.00691369,0.06298532,-64.33791351,16.22332573,-82.19818878,-0.01955979,-0.02397005,-6.75114632,0.99826503,0.00018271,0.00019876,0.05888081,0.00010767,0.00000517,0.00035892,0,0,26.26000023,0
1,2.11,211,0.00080168,0.00366341,-0.99882686,0.00126841,-0.00544942,-0.02399563,-64.48406982,15.90178299,-81.93510437,-0.01954745,-0.02402499,-6.75139523,0.99826485,0.00018263,0.00019925,0.05888297,0.00010541,-0.00030976,-0.00116627,0,0,26.26000023,0
1,2.12,212,0.00120051,0.0027582,-0.9991743,0.07273912,-0.05782948,0.02733929,-64.30867767,16.3110199,-81.5843277,-0.00875203,-0.021035,-6.7509985,0.99826515,0.00008705,0.00017875,0.05887949,-0.00028446,0.00054531,-0.00082112,0,0,26.26000023,0
1,2.13,213,0.00058916,0.00272605,-0.99908483,0.01565064,-0.01812417,0.04530331,-63.75328827,16.0479393,-81.8181839,-0.00859525,-0.0212144,-6.7505374,0.99826539,0.00008578,0.00018039,0.05887548,0.00036596,0.00043991,-0.00091153,0,0,26.26000023,0
1,2.14,214,0.00068151,0.00233629,-0.99936438,-0.00574294,0.00495557,0.04569036,-63.54866791,14.93715286,-81.96434021,-0.00865237,-0.02116302,-6.75008154,0.99826562,0.00008625,0.00017992,0.05887151,0.00027629,0.00083222,-0.00063299,0,0,26.26000023,0
1,2.15,215,0.00061989,0.0025307,-0.99841821,0.06594808,-0.04562098,0.01018578,-63.54866791,14.93715286,-81.96434021,-0.00799295,-0.02161856,-6.74999285,0.99826562,0.00008074,0.00018422,0.05887073,0.00033239,0.00062661,-0.00157865,0,0,26.26000023,0
1,2.16,216,0.00126182,0.0027057,-0.99960101,-0.05820175,-0.01071456,-0.05907973,-63.139431,15.05407715,-82.16895294,-0.00857573,-0.02172718,-6.75058413,0.99826539,0.00008587,0.00018487,0.05887589,-0.00031294,0.00045837,-0.00039448,0,0,26.26000023,0
1,2.17,217,0.00058977,0.00243871,-0.99994123,-0.07566345,-0.02893104,-0.02476518,-63.75328827,14.90792179,-81.99356842,-0.00795502,-0.0233477,-6.75080967,0.99826527,0.0000813,0.00019931,0.05887786,0.00035195,0.00073054,-0.00005599,0,0,26.26000023,0
1,2.18,218,0.00104742,0.00290779,-0.99905068,0.02939354,0.02334167,0.0114465,-64.16252136,15.37562084,-81.84741211,-0.00766113,-0.02311356,-6.75069046,0.99826527,0.00007862,0.00019742,0.05887681,-0.00012948,0.00024317,-0.0009445,0,0,26.26000023,0
1,2.19,219,0.00132207,0.00331646,-0.99974388,-0.04306898,0.12697673,-0.004101,-64.7179184,15.78485775,-82.25665283,-0.00809202,-0.02184352,-6.75072861,0.99826521,0.00008172,0.00018613,0.05887714,-0.00038321,-0.00016209,-0.0002497,0,0,26.26000023,0
1,2.2,220,0.00095663,0.00222915,-0.99854368,-0.00650727,0.07786442,-0.12658651,-64.04560089,15.90178299,-82.31510925,-0.00815845,-0.0210685,-6.75199699,0.99826455,0.0000819,0.00017935,0.05888819,-0.00000381,0.00092974,-0.0014536,0,0,26.26000023,0
1,2.21,221,0.00144402,0.00345776,-0.99919373,-0.04134971,0.02230249,0.02853157,-64.04560089,15.90178299,-82.31510925,-0.00857183,-0.02084421,-6.75171661,0.99826467,0.00008538,0.00017718,0.05888575,-0.00048084,-0.00029578,-0.00079929,0,0,26.26000023,0
1,2.22,222,0.00077247,0.00274993,-0.99874932,0.06590401,-0.04598168,0.02755366,-64.68869019,15.55100822,-82.46126556,0.0017616,-0.02445031,-6.75135279,0.99826491,-0.00000278,0.0002139,0.05888256,0.0001698,0.00036627,-0.00124669,0,0,26.26000023,0
1,2.23,223,0.00126111,0.00308776,-0.99892581,0.0121635,-0.01349615,0.02950173,-64.39637756,16.36948204,-82.31510925,0.00188332,-0.02458399,-6.75105858,0.99826509,-0.00000377,0.00021513,0.05888,-0.00036713,-0.00010761,-0.0010685,0,0,26.26000023,0
1,2.24,224,0.00074052,0.00369617,-0.99894822,-0.02507724,0.06746162,0.05285829,-63.78252029,15.25869656,-82.40280151,0.00163287,-0.0239074,-6.750525,0.99826539,-0.00000194,0.00020911,0.05887535,0.00016169,-0.00071242,-0.00104495,0,0,26.26000023,0
1,2.25,225,0.00092531,0.00285529,-0.99947774,0.04648879,0.03565335,-0.05176738,-63.57789993,15.37562084,-81.75971985,0.00209713,-0.02355203,-6.75104094,0.99826515,-0.00000617,0.00020625,0.05887985,-0.00001405,0.00012277,-0.00051771,0,0,26.26000023,0
1,2.26,226,0.00046671,0.00277737,-0.99859738,0.06321583,0.08743869,-0.03327716,-63.57789993,15.37562084,-81.75971985,0.00272883,-0.02267824,-6.75137663,0.99826491,-0.00001212,0.00019896,0.05888277,0.00045567,0.00019311,-0.00139888,0,0,26.26000023,0
1,2.27,227,-0.00011226,0.00152784,-0.99843484,-0.04339856,0.10158221,0.07085657,-63.89944458,15.96024513,-82.3735733,0.00400698,-0.03077631,-6.75042582,0.99826539,-0.00001909,0.00027017,0.05887449,0.00101253,0.00143222,-0.00156601,0,0,26.26000023,0
1,2.28,228,0.00071207,0.00233511,-0.99930346,0.06450888,0.01885819,-0.06941513,-63.84098053,16.01870728,-82.34434509,0.00465138,-0.03058941,-6.75112104,0.99826503,-0.0000248,0.00026887,0.05888054,0.00007983,0.00060408,-0.00069381,0,0,26.26000023,0
1,2.29,229,0.00077439,0.00154379,-0.99925435,0.08256584,-0.01742661,0.01679401,-64.10406494,16.22332573,-82.02279663,0.00547699,-0.03076282,-6.75095701,0.99826515,-0.00003191,0.0002708,0.05887911,0.0000153,0.00138007,-0.00074527,0,0,26.26000023,0
1,2.3,230,0.00214849,0.00261865,-0.99981344,0.06489104,-0.01759623,0.0167233,-64.16252136,16.45717621,-81.84741211,0.00612585,-0.03093791,-6.75078583,0.99826521,-0.00003747,0.00027266,0.05887761,-0.00135811,0.00029717,-0.00018114,0,0,26.26000023,0
1,2.31,231,0.00095608,0.00259384,-0.9985382,0.01074264,0.03206778,0.10440236,-64.16252136,16.45717621,-81.84741211,0.00623393,-0.03061381,-6.74974346,0.99826574,-0.00003858,0.0002699,0.05886853,-0.0001631,0.0003139,-0.00145797,0,0,26.26000023,0
1,2.32,232,0.00043666,0.00251568,-0.99921,0.01118325,0.03567483,-0.06927671,-64.27944946,14.06021595,-81.87664032,0.00998862,-0.03989911,-6.7502203,0.9982655,-0.00006652,0.00035271,0.05887267,0.00031662,0.0003754,-0.00078709,0,0,26.26000023,0
1,2.33,233,0.00077247,0.00292731,-1.00005519,-0.0239973,0.01692801,-0.01766496,-64.36714172,16.07716942,-82.34434509,0.00974835,-0.03972993,-6.75039816,0.99826539,-0.00006451,0.00035112,0.05887422,-0.00013814,-0.00008175,0.00005992,0,0,26.26000023,0
1,2.34,234,0.00037566,0.00238881,-0.9989382,0.05799758,-0.094727,-0.00278693,-64.0748291,15.43408298,-81.93510437,0.01032816,-0.04067691,-6.75043249,0.99826539,-0.00006907,0.00035966,0.05887452,0.00024479,0.00045206,-0.00105923,0,0,26.26000023,0
1,2.35,235,0.00055801,0.00319373,-0.99968654,0.07412216,-0.00829072,0.01640442,-64.36714172,14.41099072,-82.22741699,0.0110693,-0.04075896,-6.75026941,0.9982655,-0.00007549,0.00036076,0.05887309,0.00005999,-0.000369,-0.00030824,0,0,26.26000023,0
1,2.36,236,0.0008945,0.00297094,-0.99917179,0.02031906,0.02440858,0.086365,-64.36714172,14.41099072,-82.22741699,0.01127285,-0.04051205,-6.74941015,0.99826592,-0.00007739,0.00035871,0.05886561,-0.00028048,-0.00015298,-0.00082319,0,0,26.26000023,0
1,2.37,237,0.000803,0.00295829,-1.00008512,0.00346702,-0.00860849,-0.00124635,-64.30867767,14.70330334,-81.93510437,0.0092269,-0.04043369,-6.74932718,0.99826592,-0.00005961,0.00035698,0.05886489,-0.00018188,-0.00012589,0.00008997,0,0,26.26000023,0
1,2.38,238,0.0014448,0.00297743,-0.99950528,-0.0151924,0.06232727,-0.08675437,-64.54253387,15.37562084,-81.23355865,0.00907429,-0.03981254,-6.75020933,0.9982655,-0.0000586,0.00035149,0.05887257,-0.00081831,-0.00012085,-0.00048901,0,0,26.26000023,0
1,2.39,239,0.00083475,0.00206041,-0.99924648,0.0026955,0.04445001,-0.05229843,-64.39637756,15.78485775,-81.99356842,0.00910072,-0.03936914,-6.75073338,0.99826521,-0.00005905,0.00034764,0.05887714,-0.00020006,0.00079493,-0.00075138,0,0,26.26000023,0
1,2.4,240,0.00153598,0.00327364,-0.99910498,0.07571643,-0.09419669,-0.02008413,-64.54253387,16.0479393,-81.78894806,0.00985761,-0.04031131,-6.75093126,0.99826515,-0.00006516,0.00035624,0.05887887,-0.00090735,-0.00042404,-0.00088825,0,0,26.26000023,0
1,2.41,241,0.00095531,0.00325332,-0.99962389,0.00410635,-0.0627491,0.10190947,-64.22098541,16.39871407,-81.8181839,0.00989914,-0.04093551,-6.74991655,0.99826562,-0.00006521,0.0003617,0.05887002,-0.00034127,-0.00040991,-0.00037016,0,0,26.26000023,0
1,2.42,242,0.00153619,0.00318957,-0.99947143,0.09042298,0.07958832,-0.03387591,-64.22098541,16.39871407,-81.8181839,0.00646254,-0.03609844,-6.7501812,0.9982655,-0.00003775,0.00031779,0.05887234,-0.00089861,-0.00033355,-0.00052212,0,0,26.26000023,0
1,2.43,243,0.00086408,0.00288036,-0.99920362,-0.03261722,0.02462113,0.05141705,-63.98713684,15.9894762,-82.31510925,0.00613654,-0.03585037,-6.74967241,0.99826574,-0.00003504,0.00031546,0.05886791,-0.00016557,0.00002199,-0.00079176,0,0,26.26000023,0
1,2.44,244,0.00117096,0.00212592,-0.99948817,-0.00276004,0.00683996,-0.0894624,-63.69482422,15.25869656,-82.28588104,0.00610819,-0.03578421,-6.75056744,0.99826527,-0.00003483,0.00031487,0.0588757,-0.00047015,0.00078885,-0.00050904,0,0,26.26000023,0
1,2.45,245,0.00046833,0.00182203,-0.99949425,-0.04012867,-0.03406614,0.13490212,-63.75328827,15.75562668,-82.57819366,0.0057077,-0.03612056,-6.7492137,0.99826598,-0.00003117,0.0003176,0.05886392,0.00023154,0.00108976,-0.0005048,0,0,26.26000023,0
1,2.46,246,0.00095711,0.00196392,-0.99897373,-0.07607354,0.02009591,0.01423701,-64.42560577,15.08330917,-82.43203735,0.00494689,-0.03591881,-6.74907589,0.9982661,-0.00002464,0.00031545,0.05886272,-0.00026142,0.00095795,-0.00102428,0,0,26.26000023,0
1,2.47,247,0.00068185,0.00191284,-0.99791002,0.04731196,0.05809834,-0.08877435,-64.42560577,15.08330917,-82.43203735,0.01514703,-0.02903656,-6.75040483,0.99826539,-0.00011704,0.00026073,0.05887427,0.0000514,0.00096595,-0.00208858,0,0,26.26000023,0
1,2.48,248,0.00028225,0.00354837,-0.99916446,0.03070271,-0.03230558,0.08308122,-64.39637756,16.01870728,-82.66588593,0.01545459,-0.02935695,-6.74956942,0.99826592,-0.00011955,0.00026368,0.05886701,0.00053051,-0.0008008,-0.00082973,0,0,26.26000023,0
1,2.49,249,0.00101711,0.00286534,-0.99999475,-0.04055488,0.00202759,0.06613153,-64.01636505,16.22332573,-82.3735733,0.01504939,-0.02933446,-6.74890995,0.99826622,-0.00011603,0.00026328,0.05886126,-0.00020283,-0.00011668,-0.00000059,0,0,26.26000023,0
1,2.5,250,0.00046641,0.00306389,-0.99926263,-0.05835468,0.02062623,-0.00306022,-64.25022125,16.07716942,-82.08126068,0.01446566,-0.02912791,-6.7489481,0.99826622,-0.00011106,0.00026118,0.05886159,0.00034896,-0.00030573,-0.0007328,0,0,26.26000023,0
1,2.51,251,0.00049857,0.00203358,-0.99943012,-0.07533889,-0.01347292,-0.03856781,-64.10406494,16.28178787,-82.66588593,0.01371178,-0.02926333,-6.74933004,0.99826598,-0.00010442,0.00026197,0.05886492,0.00031761,0.0007383,-0.00056833,0,0,26.26000023,0
1,2.52,252,0.00074231,0.00258178,-0.99948227,0.01307916,-0.01226414,-0.05558215,-64.10406494,16.28178787,-82.66588593,0.01681609,-0.03382342,-6.749722,0.9982658,-0.00012912,0.00030329,0.05886832,0.00005085,0.00018038,-0.00051426,0,0,26.26000023,0
1,2.53,253,0.0004359,0.00296326,-0.99877733,-0.00382412,-0.06549226,-0.00460081,-64.36714172,16.39871407,-82.16895294,0.01677763,-0.03447806,-6.74976635,0.99826574,-0.00012845,0.00030898,0.05886871,0.00029073,-0.00024297,-0.00121844,0,0,26.26000023,0
1,2.54,254,0.00064939,0.00333444,-0.99910599,0.04516177,0.03753271,0.01369485,-64.30867767,16.01870728,-82.3735733,0.01722917,-0.03410199,-6.74963331,0.99826574,-0.00013257,0.00030593,0.05886754,0.00007906,-0.00061751,-0.00088832,0,0,26.26000023,0
1,2.55,255,0.00077292,0.00265794,-1.00027227,-0.06372063,0.06972926,0.02995198,-64.22098541,14.99561501,-82.25665283,0.01659199,-0.03340352,-6.74934912,0.99826598,-0.00012738,0.00029952,0.05886507,-0.00003446,0.0000658,0.0002761,0,0,26.26000023,0
1,2.56,256,0.0006498,0.00309605,-0.99935305,-0.09815215,0.05711439,-0.21369062,-64.1917572,14.93715286,-82.4905014,0.01560871,-0.03283781,-6.75149345,0.99826479,-0.0001191,0.00029409,0.05888376,0.0001031,-0.00035702,-0.00064199,0,0,26.26000023,0
1,2.57,257,0.00107889,0.00229821,-0.99896842,-0.06100953,-0.08619994,0.02679704,-64.1917572,14.93715286,-82.4905014,0.01611344,-0.029192,-6.75148153,0.99826485,-0.00012537,0.00026259,0.05888366,-0.00031471,0.00044784,-0.00102842,0,0,26.26000023,0
1,2.58,258,0.0012931,0.00214685,-0.99900073,0.04430462,-0.05161341,0.08002611,-63.63636398,15.78485775,-82.75357819,0.01655695,-0.02970558,-6.75068378,0.99826527,-0.00012897,0.00026729,0.0588767,-0.00048581,0.00058457,-0.0009964,0,0,26.26000023,0
1,2.59,259,0.0007424,0.00259243,-1.00002992,-0.00896976,-0.01458572,-0.05842818,-64.45483398,16.19409561,-82.25665283,0.01646664,-0.02985265,-6.75126743,0.99826497,-0.00012811,0.00026852,0.05888179,0.00006746,0.00013834,0.00003344,0,0,26.26000023,0
1,2.6,260,0.00147506,0.00308421,-0.99874276,0.04254129,0.05270009,0.06476148,-64.54253387,16.48640823,-81.90587616,0.01689242,-0.02932346,-6.7506237,0.99826527,-0.00013209,0.00026413,0.05887618,-0.00066587,-0.0003626,-0.00125122,0,0,26.26000023,0
1,2.61,261,0.00132143,0.00374192,-0.9997375,-0.06393372,0.08777616,-0.00443334,-64.63022614,16.01870728,-81.93510437,0.01625288,-0.02844543,-6.75065851,0.99826527,-0.00012697,0.00025615,0.05887648,-0.00049868,-0.00101158,-0.00025476,0,0,26.26000023,0
1,2.62,262,0.0002841,0.00236965,-0.9995169,-0.04531118,0.03633004,-0.02278214,-64.48406982,16.39871407,-82.81204224,0.00928986,-0.02628666,-6.75090265,0.99826515,-0.00006742,0.00023377,0.05887863,0.00055705,0.00039718,-0.00048092,0,0,26.26000023,0
1,2.63,263,0.00089503,0.00249793,-0.99829638,-0.02806979,0.05274304,0.02974282,-64.48406982,16.39871407,-82.81204224,0.00900926,-0.02575802,-6.75060892,0.99826527,-0.00006525,0.00022902,0.05887607,-0.00002498,0.00035451,-0.00170027,0,0,26.26000023,0
1,2.64,264,0.00141567,0.00207223,-0.99985361,0.04800206,-0.10186244,0.01006158,-64.54253387,16.69102669,-82.57819366,0.0094892,-0.02677594,-6.75051022,0.99826533,-0.00006891,0.00023813,0.0588752,-0.00054488,0.00078797,-0.00014359,0,0,26.26000023,0
1,2.65,265,0.0006194,0.00300843,-0.99953699,-0.06988951,0.01980374,-0.02103923,-63.66559601,15.75562668,-82.28588104,0.00878996,-0.02657814,-6.75071812,0.99826527,-0.00006292,0.00023605,0.05887702,0.00023939,-0.00015386,-0.00045847,0,0,26.26000023,0
1,2.66,266,0.00013098,0.00265913,-1.0003345,0.0893968,0.00328344,0.01398241,-64.04560089,16.01870728,-82.57819366,0.00968393,-0.02654455,-6.7505908,0.99826539,-0.00007072,0.00023622,0.05887592,0.00073242,0.00020001,0.00033743,0,0,26.26000023,0
1,2.67,267,0.0014143,0.00294882,-0.99959707,-0.01751882,0.03475249,0.11846669,-64.22098541,16.63256264,-82.63665771,0.00439633,-0.02198932,-6.74947643,0.99826586,-0.000027,0.00019382,0.05886621,-0.00052794,-0.00008121,-0.00039754,0,0,26.26000023,0
1,2.68,268,0.00037477,0.00303587,-0.999385,-0.1234723,0.05430654,-0.03791815,-64.22098541,16.63256264,-82.63665771,0.00316111,-0.021447,-6.7498579,0.99826574,-0.00001652,0.00018846,0.05886954,0.00057326,-0.0000812,-0.00061074,0,0,26.26000023,0
1,2.69,269,0.00104743,0.00280242,-0.99832195,-0.10411511,-0.03070838,-0.10907178,-64.04560089,15.5802393,-82.05203247,0.00211876,-0.02175692,-6.75093889,0.99826515,-0.00000728,0.00019062,0.05887896,-0.0001001,0.00016656,-0.00167362,0,0,26.26000023,0
1,2.7,270,0.00138399,0.00269446,-0.99902272,0.03560089,0.05583309,-0.03728177,-64.80561066,16.13563347,-82.78281403,0.00247422,-0.02119931,-6.75131845,0.99826491,-0.00001066,0.00018595,0.05888227,-0.00043216,0.00028036,-0.0009727,0,0,26.26000023,0
1,2.71,271,0.00123135,0.0024336,-0.99811405,0.05486996,-0.02990323,-0.07369959,-64.16252136,16.48640823,-82.22741699,0.00302205,-0.02150015,-6.75206089,0.99826455,-0.00001528,0.00018885,0.05888873,-0.00027989,0.00052824,-0.00188236,0,0,26.26000023,0
1,2.72,272,0.00077206,0.00305856,-0.99898815,0.01946911,-0.05045354,0.06475168,-64.27944946,16.13563347,-82.40280151,0.00545042,-0.0256463,-6.75133657,0.99826491,-0.0000343,0.00022622,0.05888242,0.00015903,-0.00010642,-0.00100692,0,0,26.30999947,0
1,2.73,273,0.00132219,0.00301101,-0.99810517,-0.10459258,-0.01482571,-0.03924961,-64.27944946,16.13563347,-82.40280151,0.00440398,-0.02579536,-6.75174046,0.99826467,-0.00002511,0.00022698,0.05888593,-0.00044864,-0.00008647,-0.00188932,0,0,26.30999947,0
1,2.74,274,0.00122989,0.00358346,-0.99940532,-0.05212659,0.02069477,-0.05570431,-64.13329315,16.07716942,-82.08126068,0.00388209,-0.02558966,-6.75229645,0.99826443,-0.00002067,0.00022492,0.05889079,-0.00035336,-0.00063976,-0.00058751,0,0,26.30999947,0
1,2.75,275,0.00104805,0.0023746,-0.99820662,0.07364912,-0.07097706,-0.01744881,-63.92867661,14.49868488,-81.75971985,0.00461827,-0.02629959,-6.75246382,0.99826437,-0.00002672,0.00023148,0.05889224,-0.00017605,0.00056632,-0.00179019,0,0,26.30999947,0
1,2.76,276,0.00150593,0.00301196,-0.99971759,0.0549753,-0.03974201,0.13949266,-63.92867661,16.10640144,-82.57819366,0.00516909,-0.02669251,-6.75106192,0.99826503,-0.00003132,0.00023519,0.05888002,-0.00064241,-0.00007849,-0.00027666,0,0,26.30999947,0
1,2.77,277,0.00058898,0.00291844,-0.99959928,-0.0709819,0.0991172,0.07233044,-63.84098053,14.79099655,-82.43203735,0.00603178,-0.02480001,-6.75038815,0.99826539,-0.0000398,0.00021914,0.05887415,0.00028504,0.00000614,-0.00039647,0,0,26.30999947,0
1,2.78,278,0.00077161,0.00332853,-0.99880153,0.0730907,-0.03596541,-0.03411564,-63.84098053,14.79099655,-82.43203735,0.0067622,-0.02516026,-6.75071764,0.99826527,-0.00004598,0.00022266,0.05887702,0.00011728,-0.00042637,-0.00119273,0,0,26.30999947,0
1,2.79,279,0.00104666,0.00342619,-0.99913424,0.00221526,-0.0380867,0.03507311,-64.01636505,14.73253441,-81.78894806,0.00678451,-0.02553972,-6.75037527,0.99826545,-0.00004598,0.00022598,0.05887404,-0.00015929,-0.00053107,-0.00085937,0,0,26.30999947,0
1,2.8,280,0.00049772,0.00261395,-0.99957359,0.00196528,-0.00055015,-0.10316901,-63.8117485,15.81408882,-82.98742676,0.0068031,-0.02554786,-6.75141382,0.99826485,-0.00004614,0.00022606,0.05888309,0.0003831,0.00028361,-0.00042308,0,0,26.30999947,0
1,2.81,281,0.0000997,0.00293525,-0.99890012,0.00333207,-0.10810994,0.06840677,-63.75328827,13.94329166,-82.28588104,0.0068368,-0.02662661,-6.75073147,0.99826521,-0.00004588,0.00023547,0.05887714,0.00076766,-0.00004175,-0.00109621,0,0,26.30999947,0
1,2.82,282,0.00034431,0.00301258,-0.99975055,0.0555409,-0.05490329,0.03493472,-64.22098541,15.78485775,-82.11049652,0.0050212,-0.02995772,-6.75031281,0.9982655,-0.00002835,0.00026356,0.0588735,0.00049925,-0.00010743,-0.00024524,0,0,26.30999947,0
1,2.83,283,0.00092618,0.00217133,-0.9986968,0.05446815,0.01548067,-0.01576687,-64.22098541,15.78485775,-81.7012558,0.00556561,-0.02980298,-6.75046778,0.99826545,-0.00003317,0.00026249,0.05887485,-0.00012226,0.00075132,-0.00130067,0,0,26.30999947,0
1,2.84,284,0.00129139,0.00323321,-0.9985888,0.0555409,-0.0549033,0.0349347,-64.48406982,15.75562668,-81.7012558,0.00612114,-0.03035063,-6.75012207,0.99826562,-0.00003773,0.00026754,0.05887184,-0.00049025,-0.00032509,-0.00140506,0,0,26.30999947,0
1,2.85,285,0.00077289,0.00254784,-0.99930012,0.01008447,0.00240771,0.0322599,-64.48406982,15.46331501,-81.64279175,0.00622208,-0.03032521,-6.74979401,0.99826574,-0.00003862,0.00026737,0.05886897,0.0000216,0.00035587,-0.00069645,0,0,26.30999947,0
1,2.86,286,0.00083319,0.0031288,-0.99947387,-0.0640646,0.04007494,-0.05535638,-63.75328827,15.49254608,-81.96434021,0.00558086,-0.02992571,-6.7503581,0.99826545,-0.00003324,0.00026357,0.05887389,-0.00003237,-0.00021338,-0.00052089,0,0,26.30999947,0
1,2.87,287,0.00153574,0.00345953,-0.9992848,-0.15269575,0.05691305,-0.07272726,-64.0748291,14.70330334,-81.84741211,0.00689264,-0.02369421,-6.75120258,0.99826503,-0.00004787,0.00020995,0.05888125,-0.00069967,-0.00053733,-0.00070799,0,0,26.30999947,0
1,2.88,288,0.00126091,0.00331409,-0.99962234,-0.02833284,0.00395977,0.03092349,-63.69482422,15.28792763,-81.87664032,0.00660944,-0.02365335,-6.75089169,0.99826515,-0.00004542,0.00020945,0.05887853,-0.00034804,-0.00041074,-0.00037137,0,0,26.30999947,0
1,2.89,289,0.0004063,0.0024322,-0.99960697,0.04482028,-0.13360485,0.01103407,-63.69482422,15.28792763,-81.87664032,0.00705761,-0.02498868,-6.75077534,0.99826521,-0.00004864,0.00022132,0.05887752,0.00049445,0.0004681,-0.00039048,0,0,26.30999947,0
1,2.9,290,0.00052822,0.00256996,-0.99887431,0.07861966,-0.04699894,0.03029612,-64.01636505,16.72025681,-82.22741699,0.00784392,-0.02545741,-6.75049114,0.99826545,-0.00005525,0.0002258,0.05887505,0.00035591,0.0003135,-0.00112263,0,0,26.30999947,0
1,2.91,291,0.00080286,0.00304887,-1.00005329,-0.02885437,0.01948174,0.11811353,-64.22098541,15.93101406,-82.08126068,0.00755627,-0.02525881,-6.74930477,0.99826604,-0.00005285,0.00022392,0.05886471,0.00008042,-0.00016774,0.00005823,0,0,26.30999947,0
1,2.92,292,0.00153633,0.00313529,-0.999807,-0.06415272,0.03935355,-0.02062059,-64.57176208,16.45717621,-82.28588104,-0.00234902,-0.02547327,-6.74952078,0.99826586,0.00003355,0.0002207,0.05886661,-0.00064866,-0.00020247,-0.0001869,0,0,26.30999947,0
1,2.93,293,0.00113857,0.003307,-0.9992575,-0.04575046,-0.01389602,0.04787015,-64.63022614,16.42794418,-81.99356842,-0.00280625,-0.02561037,-6.74904919,0.9982661,0.0000376,0.00022166,0.05886251,-0.00025799,-0.00024655,-0.00073629,0,0,26.30999947,0
1,2.94,294,0.00046652,0.00289834,-0.9985652,0.04477622,-0.13396554,0.02840199,-64.63022614,16.42794418,-81.99356842,-0.00235839,-0.02694876,-6.7487545,0.99826622,0.00003439,0.00023355,0.05885994,0.00039639,0.00016081,-0.0014308,0,0,26.30999947,0
1,2.95,295,0.00098657,0.00276294,-0.99941814,-0.0072248,-0.04260864,0.07892677,-64.39637756,16.48640823,-82.25665283,-0.00243014,-0.02737206,-6.74795818,0.9982667,0.00003523,0.0002372,0.058853,-0.0001364,0.00029095,-0.0005776,0,0,26.30999947,0
1,2.96,296,0.00080303,0.00289101,-0.99975139,-0.0415807,0.08825786,-0.09555939,-63.78252029,15.60947037,-82.3735733,-0.00284695,-0.02649202,-6.74891567,0.99826622,0.00003841,0.00022932,0.05886135,0.00005796,0.00017349,-0.00024412,0,0,26.30999947,0
1,2.97,297,0.00150533,0.00322847,-0.99834496,-0.0233475,0.05341583,-0.07882185,-63.87021255,14.87869072,-81.61356354,-0.00592748,-0.01686513,-6.74972343,0.99826574,0.0000603,0.00014388,0.05886838,-0.00060019,-0.000151,-0.00164864,0,0,26.30999947,0
1,2.98,298,0.0013224,0.0031055,-0.99983835,-0.0218854,-0.03357219,-0.06320668,-62.96404648,15.20023346,-82.46126556,-0.00614714,-0.01720247,-6.75033855,0.9982655,0.00006239,0.0001467,0.05887374,-0.00029382,0.00002156,-0.00015593,0,0,26.30999947,0
1,2.99,299,0.00052862,0.00229586,-0.99884796,-0.05758028,-0.01694667,-0.04562961,-62.96404648,15.20023346,-82.46126556,-0.00672356,-0.01737298,-6.75080013,0.99826521,0.0000675,0.00014789,0.05887776,0.00049495,0.00083287,-0.00114981,0,0,26.30999947,0
1,3,300,0.00037565,0.00256559,-1.00021362,0.04821134,0.00175722,-0.06222273,-63.72405624,15.34638977,-81.67202759,-0.00624222,-0.017357,-6.75141525,0.99826491,0.0000633,0.000148,0.05888312,0.00064929,0.00056423,0.00021654,0,0,26.30999947,0
1,3.01,301,0.00092563,0.00271339,-0.99999726,0.01311891,-0.01626822,-0.04534683,-64.8348465,16.01870728,-82.05203247,-0.00611165,-0.01752068,-6.75186682,0.99826467,0.00006225,0.00014949,0.05888706,0.0000946,0.00041116,0.00000115,0,0,26.30999947,0
1,3.02,302,0.00086395,0.00283045,-0.99820018,0.03001501,0.01710955,0.02489658,-64.16252136,16.13563347,-82.08126068,-0.00513479,-0.01454714,-6.75158739,0.99826479,0.00005221,0.00012409,0.05888462,0.00016548,0.00028195,-0.0017956,0,0,26.30999947,0
1,3.03,303,0.00003905,0.00259859,-0.99878365,-0.05978422,0.08375988,0.11278476,-64.25022125,16.34025192,-82.66588593,-0.00573157,-0.01370565,-6.75045156,0.99826545,0.00005697,0.00011645,0.05887473,0.00104036,0.00050938,-0.0012139,0,0,26.30999947,0
1,3.04,304,0.00064931,0.00346783,-0.99971259,0.02894226,0.08749352,-0.02580493,-64.25022125,16.34025192,-82.66588593,-0.0054426,-0.01283116,-6.75073576,0.99826527,0.00005401,0.00010898,0.0588772,0.00044782,-0.00035511,-0.00028145,0,0,26.30999947,0
1,3.05,305,0.00123123,0.002845,-1.00051188,-0.09305036,0.05016007,-0.02621256,-64.39637756,15.9894762,-82.46126556,-0.00637353,-0.01233002,-6.75098848,0.99826515,0.00006186,0.00010414,0.05887941,-0.0001232,0.00027728,0.00051674,0,0,26.30999947,0
1,3.06,306,0.00022238,0.00266055,-0.99884319,-0.08983391,0.06408195,-0.07560038,-63.95790482,15.28792763,-82.57819366,-0.00727287,-0.01169118,-6.7517333,0.99826473,0.00006937,0.00009811,0.05888589,0.0008946,0.00047795,-0.00115388,0,0,26.30999947,0
1,3.07,307,0.00037351,0.00371178,-0.99818802,-0.05333064,-0.02509174,0.06173157,-64.36714172,16.19409561,-81.8181839,-0.01320788,-0.01431075,-6.75128508,0.99826503,0.00012241,0.00011788,0.058882,0.0007358,-0.00054459,-0.00180568,0,0,26.30999947,0
1,3.08,308,0.00065017,0.00246305,-0.99650198,0.05254911,-0.00566647,0.01040266,-63.72405624,16.07716942,-82.43203735,-0.01268244,-0.01436669,-6.75118923,0.99826509,0.00011787,0.00011864,0.05888116,0.00042012,0.00076592,-0.00349514,0,0,26.30999947,0
1,3.09,309,0.00046758,0.00262555,-1.00173414,-0.09022327,0.08068604,-0.04051404,-63.92867661,15.9894762,-82.02279663,-0.01358527,-0.01356075,-6.75159216,0.99826479,0.00012532,0.00011115,0.05888467,0.00061773,0.00062407,0.00173726,0,0,26.30999947,0
1,3.1,310,0.00037474,0.00292578,-0.99841279,-0.09031139,0.07996464,-0.00577824,-63.92867661,15.9894762,-82.02279663,-0.01448861,-0.01276093,-6.75165701,0.99826479,0.00013278,0.00010372,0.05888524,0.00072166,0.00033501,-0.0015832,0,0,26.30999947,0
1,3.11,311,0.00178244,0.00206631,-0.99954861,0.0169864,0.01204116,-0.02412401,-64.74714661,14.90792179,-81.5843277,-0.01431918,-0.01264091,-6.75189781,0.99826467,0.00013124,0.00010276,0.05888733,-0.00067793,0.00120196,-0.00044819,0,0,26.30999947,0
1,3.12,312,0.00067961,0.00347338,-0.99843436,0.05280628,-0.02335264,0.02742,-64.48406982,16.54487038,-81.75971985,-0.01414988,-0.01066839,-6.75158644,0.99826485,0.00012875,0.00008567,0.05888462,0.0004327,-0.00021297,-0.00155962,0,0,26.30999947,0
1,3.13,313,0.00153747,0.0022321,-0.99869454,-0.00030624,-0.02458289,0.06194367,-64.04560089,16.07716942,-81.43817139,-0.01415242,-0.0109118,-6.75096416,0.99826515,0.0001289,0.00008779,0.0588792,-0.00040236,0.00102839,-0.00130205,0,0,26.30999947,0
1,3.14,314,0.00080236,0.00341888,-1.00032163,0.07026796,-0.00513616,-0.00689454,-64.25022125,16.39871407,-81.87664032,-0.01344998,-0.01096299,-6.75103331,0.99826515,0.0001228,0.00008859,0.0588798,0.00033622,-0.00015875,0.00032764,0,0,26.30999947,0
1,3.15,315,0.00043604,0.00301494,-0.99987209,-0.00116587,0.02775421,0.04562741,-64.25022125,16.39871407,-81.87664032,-0.01346129,-0.01068359,-6.75058126,0.99826539,0.00012276,0.00008615,0.05887586,0.00070007,0.00023466,-0.00012362,0,0,26.30999947,0
1,3.16,316,0.0006498,0.00288355,-0.99780422,-0.04009721,-0.09880737,-0.06079928,-64.30867767,15.46331501,-81.5843277,-0.01386311,-0.01167325,-6.75118542,0.99826503,0.00012677,0.00009457,0.05888113,0.00047801,0.00036702,-0.0021916,0,0,26.30999947,0
1,3.17,317,0.00141339,0.00341554,-0.99858576,0.06499664,-0.06602431,0.0792693,-64.04560089,15.72639561,-81.52587128,-0.01901449,-0.00724383,-6.75047588,0.99826539,0.00016937,0.00005334,0.05887493,-0.00027531,-0.00014098,-0.00140741,0,0,26.30999947,0
1,3.18,318,0.00065063,0.00258474,-0.99963456,0.10022124,-0.04691685,0.01028964,-64.42560577,16.19409561,-81.43817139,-0.01801231,-0.00771227,-6.75037193,0.9982655,0.00016088,0.00005793,0.05887404,0.00053889,0.00074822,-0.00036217,0,0,26.30999947,0
1,3.19,319,0.00089421,0.00322234,-0.99959409,-0.0247882,0.0403267,-0.07529209,-63.8117485,15.22946453,-82.13972473,-0.01826123,-0.00731113,-6.75111866,0.99826503,0.00016284,0.00005431,0.05888054,0.00030306,0.00011255,-0.00040033,0,0,26.30999947,0
1,3.2,320,0.00086273,0.00365335,-0.99830955,0.11849852,-0.08139815,0.00965926,-63.8117485,15.22946453,-82.13972473,-0.01707629,-0.0081244,-6.75102234,0.99826515,0.00015293,0.000062,0.0588797,0.00032309,-0.00033369,-0.00168368,0,0,26.30999947,0
1,3.21,321,0.00092647,0.00206159,-0.9993071,-0.04260236,0.01922464,0.09796564,-64.13329315,16.3110199,-82.05203247,-0.01750134,-0.00792851,-6.75003672,0.99826562,0.00015654,0.00006008,0.05887112,0.00026288,0.00125533,-0.00069089,0,0,26.30999947,0
1,3.22,322,0.00113897,0.00313944,-1.00002086,0.02861836,0.00438113,0.01105843,-64.1917572,16.34025192,-82.46126556,-0.02140288,-0.01426713,-6.75028229,0.9982655,0.00019378,0.00011329,0.05887327,0.00002247,0.0002014,0.00002639,0,0,26.30999947,0
1,3.23,323,0.00068001,0.00333976,-0.99937975,0.06517289,-0.06458152,0.00979768,-64.16252136,16.3110199,-82.28588104,-0.02075122,-0.01491223,-6.75018358,0.9982655,0.00018844,0.00011925,0.0588724,0.00039189,0.00004346,-0.00061461,0,0,26.30999947,0
1,3.24,324,0.00077349,0.00201169,-0.99830389,0.06586347,-0.09851107,-0.02563923,-64.25022125,15.84332085,-82.05203247,-0.02009304,-0.01589783,-6.75045967,0.99826539,0.00018321,0.00012817,0.05887481,0.0002812,0.00135836,-0.0016943,0,0,26.30999947,0
1,3.25,325,0.00101897,0.00161816,-0.99995261,0.04784339,-0.08171591,-0.00799146,-64.25022125,15.84332085,-82.05203247,-0.01961484,-0.01671486,-6.75054169,0.99826539,0.00017946,0.00013553,0.05887553,0.0000214,0.00174231,-0.00004647,0,0,26.30999947,0
1,3.26,326,0.00184171,0.00342004,-1.00038028,0.09030807,-0.1262937,0.0454279,-64.33791351,16.07716942,-82.25665283,-0.01871147,-0.01797586,-6.75007296,0.99826562,0.00017224,0.00014698,0.05887145,-0.00081734,-0.00007029,0.00038763,0,0,26.30999947,0
1,3.27,327,0.00126261,0.0023325,-1.00073254,0.01406849,-0.02000137,0.03059882,-64.22098541,15.5802393,-81.87664032,-0.01356456,-0.01772899,-6.74965334,0.9982658,0.00012728,0.00014748,0.05886778,-0.00025438,0.00098448,0.00073592,0,0,26.30999947,0
1,3.28,328,0.00147545,0.00277321,-0.99838227,-0.05847497,0.10276265,-0.07143763,-63.84098053,15.11254025,-81.90587616,-0.0141502,-0.01670331,-6.75036049,0.99826545,0.00013185,0.00013824,0.05887394,-0.00044902,0.0004852,-0.00161277,0,0,26.30999947,0
1,3.29,329,0.0003454,0.00228203,-0.99970067,-0.0398668,0.01161586,0.15266308,-64.36714172,15.37562084,-82.54895782,-0.01454745,-0.01658177,-6.74883556,0.99826628,0.00013525,0.00013698,0.05886066,0.00069047,0.00098813,-0.00029742,0,0,26.30999947,0
1,3.3,330,0.00110924,0.00252217,-0.99954325,0.1399007,-0.14009234,0.02863999,-63.89944458,15.3171587,-82.51972961,-0.01314831,-0.01798133,-6.74855089,0.99826646,0.00012378,0.00014989,0.05885819,-0.00008547,0.00073567,-0.00045305,0,0,26.30999947,0
1,3.31,331,0.00123111,0.00283258,-0.9998731,0.103089,-0.05344349,0.01288341,-63.89944458,15.3171587,-82.51972961,-0.01211746,-0.01851502,-6.74843216,0.99826646,0.00011507,0.00015507,0.05885714,-0.00022369,0.00040274,-0.00012216,0,0,26.30999947,0
1,3.32,332,0.00083422,0.0024983,-0.99987894,0.08390806,0.03301424,0.01456538,-64.45483398,16.77871895,-81.78894806,-0.01044828,-0.01455397,-6.74815941,0.99826658,0.0000985,0.00012142,0.05885476,0.00019029,0.00071792,-0.00011778,0,0,26.30999947,0
1,3.33,333,-0.00029763,0.00297747,-0.99950904,-0.03955837,0.01414077,0.03108778,-64.51329803,16.01870728,-82.02279663,-0.01084371,-0.0144112,-6.74785042,0.99826682,0.00010187,0.00011997,0.05885208,0.00137101,0.00022209,-0.00048779,0,0,26.30999947,0
1,3.34,334,0.00080291,0.0030905,-1.00063086,0.01445783,-0.0366054,-0.00448751,-64.65945435,16.28178787,-82.19818878,-0.01069931,-0.01477702,-6.74788904,0.9982667,0.0001008,0.00012324,0.0588524,0.00026993,0.00011773,0.00063588,0,0,26.30999947,0
1,3.35,335,0.00095608,0.00273551,-0.99957079,-0.00261451,-0.07142596,-0.00525934,-64.63022614,15.84332085,-82.25665283,-0.01072567,-0.01549108,-6.74795723,0.99826676,0.00010139,0.00012944,0.05885301,0.00010373,0.00046768,-0.00042506,0,0,26.30999947,0
1,3.36,336,0.00107754,0.00303549,-0.99780101,0.11602055,-0.08135978,0.00666456,-64.63022614,15.84332085,-82.25665283,-0.00956553,-0.01630407,-6.74788523,0.9982667,0.0000917,0.00013712,0.05885237,-0.00003202,0.00015313,-0.00219375,0,0,26.30999947,0
1,3.37,337,0.00098558,0.00325591,-0.9981935,0.12757814,-0.02156667,-0.04990526,-63.78252029,15.69716454,-82.57819366,-0.00463986,-0.01554774,-6.74825954,0.99826658,0.00004841,0.00013306,0.05885563,0.00005163,-0.00010764,-0.00180068,0,0,26.30999947,0
1,3.38,338,0.00061866,0.00356492,-1.00001562,0.03756579,0.06313051,0.00359761,-63.98713684,15.08330917,-82.40280151,-0.00426435,-0.01491594,-6.74822807,0.99826658,0.00004481,0.00012775,0.05885535,0.00044338,-0.00046937,0.00002172,0,0,26.30999947,0
1,3.39,339,0.00068129,0.00238289,-0.99863333,0.01997191,0.04383193,0.09001588,-64.16252136,14.90792179,-82.66588593,-0.00406383,-0.01447445,-6.74732542,0.99826699,0.00004284,0.00012401,0.05884749,0.00039118,0.00070198,-0.00136399,0,0,26.30999947,0
1,3.4,340,0.00040629,0.00221852,-0.99799728,0.02170556,-0.02114154,-0.11980113,-64.25022125,15.5802393,-82.57819366,-0.0038482,-0.01468918,-6.74851894,0.99826646,0.00004107,0.00012599,0.05885789,0.00065987,0.00085911,-0.00200082,0,0,26.30999947,0
1,3.41,341,0.00123117,0.00273195,-0.99938768,-0.05024981,0.02727082,0.01991089,-64.25022125,15.5802393,-82.57819366,-0.00435068,-0.01441546,-6.74832964,0.99826658,0.00004531,0.00012335,0.05885625,-0.00015888,0.00035553,-0.00060783,0,0,26.30999947,0
1,3.42,342,0.00055896,0.00251864,-0.99936193,0.05739326,-0.05761744,-0.01615339,-63.92867661,16.89564514,-82.34434509,-0.00443599,-0.02036272,-6.74858046,0.9982664,0.0000491,0.00017511,0.05885842,0.00048643,0.00057023,-0.00063516,0,0,26.30999947,0
1,3.43,343,0.00117055,0.00240002,-0.99951452,0.00333298,-0.00723197,0.03678985,-64.25022125,16.66179466,-82.54895782,-0.00440246,-0.02043351,-6.74819708,0.99826658,0.00004885,0.00017575,0.05885509,-0.0002009,0.00069264,-0.00048211,0,0,26.30999947,0
1,3.44,344,0.00126193,0.00246931,-0.99838728,0.0746787,-0.04084376,0.01900369,-64.30867767,16.54487038,-82.13972473,-0.00365564,-0.02084098,-6.74801922,0.9982667,0.00004255,0.00017968,0.05885354,-0.00029869,0.00061312,-0.00160888,0,0,26.30999947,0
1,3.45,345,0.00040492,0.00337903,-0.99983621,-0.06723403,-0.00682836,-0.01559673,-64.36714172,16.01870728,-82.25665283,-0.0043283,-0.02090936,-6.74817276,0.99826652,0.00004845,0.00017993,0.05885487,0.00055758,-0.0002913,-0.0001584,0,0,26.30999947,0
1,3.46,346,0.00086396,0.00318699,-1.00090325,0.03308521,0.03348416,-0.08403392,-64.36714172,16.01870728,-82.25665283,-0.00399843,-0.02057673,-6.74900723,0.9982661,0.0000454,0.0001772,0.05886214,0.00010439,-0.00009169,0.00090856,0,0,26.30999947,0
1,3.47,347,0.00165878,0.00290601,-0.99895805,0.03449753,0.04037141,0.0547072,-64.36714172,14.93715286,-81.40894318,-0.01803306,-0.01832958,-6.74865437,0.99826634,0.00016651,0.00015042,0.05885909,-0.0006788,0.00023632,-0.00103628,0,0,26.30999947,0
1,3.48,348,-0.00038773,0.0019144,-0.99955559,0.00125655,-0.08124612,0.05211196,-63.75328827,15.22946453,-81.99356842,-0.0180201,-0.01913993,-6.74813366,0.99826658,0.00016681,0.00015748,0.05885455,0.00138211,0.0014178,-0.00044445,0,0,26.30999947,0
1,3.49,349,0.00095703,0.00206101,-0.99927658,-0.12469345,0.07746351,-0.13627499,-63.89944458,15.87255192,-81.61356354,-0.01926856,-0.01836947,-6.74949503,0.99826586,0.00017729,0.00015013,0.05886641,0.00004361,0.00128048,-0.00072124,0,0,26.30999947,0
1,3.5,350,0.00083459,0.00218493,-0.99939674,-0.03611355,0.04041436,0.01968857,-63.49020767,15.90178299,-81.8181839,-0.01962966,-0.01796429,-6.74929619,0.99826598,0.00018023,0.00014641,0.05886468,0.00017409,0.00117247,-0.00060088,0,0,26.30999947,0
1,3.51,351,-0.00011489,0.00332795,-0.99877304,-0.07116192,0.02274965,0.01919661,-63.89944458,16.63256264,-81.93510437,-0.02034122,-0.01773577,-6.74911165,0.9982661,0.00018631,0.00014406,0.05886307,0.0011283,0.00003847,-0.00122241,0,0,26.30999947,0
1,3.52,352,0.0015378,0.00219793,-1.00006449,-0.05331087,0.02436207,-0.0502043,-63.89944458,16.63256264,-81.93510437,-0.02003583,-0.01631258,-6.74952364,0.99826592,0.00018292,0.00013181,0.05886666,-0.00051268,0.00117807,0.00006779,0,0,26.30999947,0
1,3.53,353,0.0019039,0.00279189,-1.00090694,-0.07102974,0.02383175,-0.0329071,-64.1917572,16.51563835,-82.11049652,-0.02074667,-0.01607501,-6.74986458,0.99826568,0.00018899,0.00012938,0.05886963,-0.00085719,0.00058576,0.00091249,0,0,26.30999947,0
1,3.54,354,0.00046679,0.00282136,-0.99929672,0.03506313,0.02521015,-0.04985075,-64.16252136,16.72025681,-82.46126556,-0.02039672,-0.01582421,-6.75036383,0.9982655,0.00018582,0.00012737,0.05887398,0.0005805,0.00055456,-0.00069958,0,0,26.30999947,0
1,3.55,355,0.00052812,0.00245276,-0.99753708,0.00087439,-0.04479166,-0.03402643,-63.8117485,16.74948883,-82.40280151,-0.02038848,-0.01627291,-6.7507062,0.99826527,0.00018598,0.00013129,0.05887696,0.00051518,0.0009124,-0.00246021,0,0,26.30999947,0
1,3.56,356,0.00104768,0.00275939,-0.99923551,-0.05374428,0.04060543,0.00224995,-63.4025116,16.45717621,-82.51972961,-0.02092604,-0.01586638,-6.75067186,0.99826527,0.00019045,0.00012747,0.05887666,0.00000042,0.00061944,-0.00076009,0,0,26.30999947,0
1,3.57,357,0.00147515,0.00313057,-0.99956375,-0.04505945,-0.08721831,0.05724395,-63.4025116,16.45717621,-82.51972961,-0.01989284,-0.01170892,-6.74984837,0.99826574,0.00017931,0.00009178,0.05886948,-0.00041105,0.00024736,-0.00043015,0,0,26.30999947,0
1,3.58,358,0.000069,0.00295558,-0.99838257,0.00853054,-0.10187075,-0.04710188,-63.54866791,16.34025192,-82.87050629,-0.01980823,-0.0127288,-6.75031614,0.9982655,0.0001791,0.00010071,0.05887356,0.0010382,0.00040633,-0.0016137,0,0,26.30999947,0
1,3.59,359,0.00025315,0.00254076,-0.99893618,0.02538976,-0.0490033,-0.08071534,-63.05173874,15.3171587,-82.4905014,-0.0195554,-0.01322118,-6.75114012,0.99826503,0.00017715,0.00010513,0.05888074,0.0008448,0.00081452,-0.00106124,0,0,26.30999947,0
1,3.6,360,0.00178045,0.00344155,-0.99992359,0.02547069,-0.06813227,0.0057736,-64.1917572,16.13563347,-82.81204224,-0.0193008,-0.01390193,-6.75108194,0.99826503,0.00017528,0.00011119,0.05888023,-0.00069228,-0.00008464,-0.00006901,0,0,26.30999947,0
1,3.61,361,0.00089471,0.00288805,-0.9995991,-0.06432135,0.01836839,-0.02756306,-64.0748291,15.22946453,-82.95819855,-0.01994448,-0.01371879,-6.75135231,0.99826491,0.0001808,0.00010926,0.05888259,0.00018793,0.0004705,-0.00039645,0,0,26.30999947,0
1,3.62,362,0.00052859,0.00232743,-0.99890834,0.05940226,0.01955572,-0.0270681,-64.0748291,15.22946453,-82.95819855,-0.01357086,-0.01730799,-6.75158548,0.99826485,0.00012712,0.0001438,0.05888462,0.00054448,0.00100509,-0.00108933,0,0,26.30999947,0
1,3.63,363,0.00092665,0.00204599,-1.00006807,-0.09980313,0.01694707,0.02439925,-64.10406494,16.25255775,-82.4905014,-0.01456881,-0.01713734,-6.75133562,0.99826491,0.00013572,0.00014181,0.05888244,0.00009859,0.00121939,0.00007014,0,0,26.30999947,0
1,3.64,364,0.00080289,0.00266254,-0.99738115,0.00577539,0.05369781,-0.02657914,-64.36714172,16.28178787,-82.43203735,-0.01451148,-0.01660084,-6.75159597,0.99826479,0.00013495,0.00013716,0.05888471,0.00023019,0.00060381,-0.00261509,0,0,26.30999947,0
1,3.65,365,0.00062029,0.00207803,-0.99702513,-0.04716808,0.03405999,0.05969772,-63.89944458,16.9833374,-82.3735733,-0.01498267,-0.01625793,-6.75100422,0.99826515,0.00013888,0.00013393,0.05887955,0.00041475,0.00118767,-0.00297313,0,0,26.30999947,0
1,3.66,366,0.00046687,0.00272428,-0.99899387,-0.02871457,0.00102147,-0.01040427,-64.27944946,16.83718109,-82.13972473,-0.01527009,-0.01624766,-6.75110626,0.99826503,0.00014137,0.0001337,0.05888044,0.00057464,0.00055477,-0.00100271,0,0,26.30999947,0
1,3.67,367,0.00175118,0.00262753,-1.00027061,-0.0945636,0.06933307,0.04774487,-64.27944946,16.83718109,-82.13972473,-0.01591113,-0.01519091,-6.75061369,0.99826539,0.00014641,0.00012416,0.05887616,-0.00069877,0.00066406,0.00027548,0,0,26.30999947,0
1,3.68,368,0.00089409,0.00320874,-0.99889433,0.10296466,0.04041168,-0.12421543,-64.16252136,15.43408298,-81.87664032,-0.01488298,-0.0147905,-6.75186253,0.99826467,0.00013725,0.0001212,0.05888703,0.00017387,0.00007695,-0.0011002,0,0,26.30999947,0
1,3.69,369,0.00092524,0.00256368,-0.99698675,-0.03827186,0.00079682,0.04819686,-63.05173874,15.78485775,-82.13972473,-0.01526531,-0.01478058,-6.75137424,0.99826491,0.00014058,0.00012092,0.05888277,0.00014145,0.00070519,-0.00300961,0,0,26.30999947,0
1,3.7,370,0.00043744,0.00207048,-0.9997645,-0.14518027,0.05211622,0.03145632,-64.16252136,14.90792179,-81.87664032,-0.01671694,-0.01425801,-6.75106239,0.99826515,0.00015296,0.00011562,0.05888006,0.00063445,0.00122889,-0.00023407,0,0,26.30999947,0
1,3.71,371,0.00168847,0.00373045,-1.00071073,-0.00334848,0.0372298,-0.02043225,-63.75328827,15.84332085,-81.7012558,-0.01675082,-0.013886,-6.75125694,0.99826503,0.00015306,0.00011236,0.05888176,-0.00060731,-0.00041912,0.00071881,0,0,26.30999947,0
1,3.72,372,0.00074067,0.00381927,-1.00058961,0.01548718,-0.03226316,-0.00439583,-63.75328827,15.84332085,-81.7012558,-0.01186508,-0.02128407,-6.7513628,0.99826491,0.0001143,0.00017932,0.05888268,0.00030753,-0.0005285,0.0005968,0,0,26.30999947,0
1,3.73,373,0.00116992,0.00240048,-0.99641049,0.03277982,0.00436089,-0.09046352,-64.39637756,16.83718109,-82.13972473,-0.0115383,-0.02124298,-6.75225258,0.99826443,0.00011143,0.00017913,0.05889042,-0.00021625,0.00081318,-0.00358605,0,0,26.30999947,0
1,3.74,374,0.0008632,0.00317385,-0.99709946,0.06717447,0.03646548,0.0493222,-64.30867767,16.60333252,-82.40280151,-0.01086624,-0.02087637,-6.75176668,0.99826467,0.00010539,0.00017628,0.05888619,0.00009643,0.0000309,-0.00289522,0,0,26.30999947,0
1,3.75,375,0.00074268,0.00258806,-1.001369,0.01415007,0.03595662,0.04911007,-64.0748291,16.28178787,-82.72434998,-0.01072442,-0.02051483,-6.75127363,0.99826497,0.00010397,0.0001732,0.0588819,0.00022741,0.00062168,0.00137234,0,0,26.30999947,0
1,3.76,376,0.00034496,0.00294246,-1.00239921,0.01536219,-0.0134949,-0.07351691,-64.30867767,15.90178299,-82.05203247,-0.01057167,-0.02065176,-6.75201559,0.99826461,0.00010271,0.00017448,0.05888837,0.00062549,0.00026929,0.00240314,0,0,26.30999947,0
1,3.77,377,0.00098756,0.00177235,-0.99693763,0.01809038,0.01535505,0.05169323,-64.57176208,16.48640823,-82.81204224,-0.01551758,-0.02210985,-6.75152969,0.99826485,0.00014654,0.00018464,0.05888414,-0.00003491,0.00143699,-0.00306106,0,0,26.30999947,0
1,3.78,378,0.00056015,0.00176362,-0.99961668,0.04056512,-0.05741397,0.07066335,-64.57176208,16.48640823,-82.81204224,-0.01511145,-0.02268129,-6.75081968,0.99826515,0.0001433,0.00018982,0.05887794,0.00037249,0.00151945,-0.00038259,0,0,26.30999947,0
1,3.79,379,0.00013134,0.00234458,-0.99979144,-0.01336298,-0.00594644,0.07150289,-64.63022614,16.39871407,-82.40280151,-0.01524459,-0.02273799,-6.75010014,0.99826562,0.00014449,0.00019025,0.05887169,0.00079915,0.00093744,-0.00020658,0,0,26.30999947,0
1,3.8,380,0.00064999,0.00276199,-0.99780607,0.09234771,0.03188641,-0.03157922,-63.95790482,15.02484608,-82.66588593,-0.01432157,-0.02241978,-6.75042963,0.99826539,0.00013628,0.00018795,0.05887455,0.00028318,0.00050644,-0.00219006,0,0,26.30999947,0
1,3.81,381,0.00193457,0.0025192,-0.99938935,-0.06780542,0.08089346,0.03830767,-64.22098541,15.90178299,-82.28588104,-0.01499945,-0.02160921,-6.75004244,0.99826556,0.00014177,0.00018054,0.05887117,-0.00098953,0.00075341,-0.0006058,0,0,26.30999947,0
1,3.82,382,-0.00011456,0.00315212,-0.9991104,-0.08349658,-0.02178616,-0.03333794,-64.04560089,14.90792179,-82.08126068,-0.01443378,-0.0280734,-6.75049734,0.99826533,0.00014016,0.00023715,0.05887514,0.00103181,0.00012821,-0.00088553,0,0,26.30999947,0
1,3.83,383,0.00174992,0.00344628,-1.00016701,-0.03060436,-0.0223594,0.0189779,-64.04560089,14.90792179,-82.08126068,-0.01473982,-0.02829601,-6.75030279,0.99826545,0.00014294,0.00023893,0.05887344,-0.00091671,-0.00017579,0.00017451,0,0,26.30999947,0
1,3.84,384,0.00129351,0.00201441,-1.00000691,0.02159727,0.01099689,0.10673067,-64.48406982,16.45717621,-82.54895782,-0.01452311,-0.02818216,-6.74923849,0.99826598,0.000141,0.00023805,0.05886418,-0.00045929,0.00125873,0.00000945,0,0,26.30999947,0
1,3.85,385,0.00116924,0.00314144,-0.99856001,0.05674095,0.04923334,-0.04873798,-63.98713684,16.36948204,-82.81204224,-0.01395628,-0.02769103,-6.74973154,0.9982658,0.00013581,0.00023406,0.05886848,-0.00033164,0.0001205,-0.00143424,0,0,26.30999947,0
1,3.86,386,0.00046632,0.00312467,-0.99926168,0.00418683,0.01299147,0.00245249,-64.27944946,16.36948204,-82.75357819,-0.01391457,-0.02756068,-6.74971437,0.99826574,0.00013538,0.00023295,0.05886832,0.00037916,0.0001341,-0.0007335,0,0,26.30999947,0
1,3.87,387,0.00031449,0.00245668,-0.99930251,-0.03158211,0.0292121,0.00033798,-63.25635529,16.19409561,-82.43203735,-0.01047449,-0.03430464,-6.74988174,0.99826574,0.00010887,0.00029346,0.05886979,0.00050335,0.00078897,-0.00069491,0,0,26.30999947,0
1,3.88,388,0.00055933,0.00234694,-0.99991226,-0.03086366,-0.04346864,0.04406864,-63.25635529,16.19409561,-82.43203735,-0.01078297,-0.03473753,-6.74944067,0.99826586,0.00011178,0.00029708,0.05886593,0.00016275,0.00085834,-0.00008521,0,0,26.30999947,0
1,3.89,389,0.0009574,0.00174764,-0.99879444,0.02315256,-0.09421484,0.00849334,-63.66559601,15.49254608,-82.08126068,-0.01055154,-0.03567905,-6.7493577,0.99826598,0.00011025,0.0003054,0.05886522,-0.00025104,0.00145105,-0.00120434,0,0,26.30999947,0
1,3.9,390,0.00083342,0.00322566,-1.00132871,-0.01357102,-0.00684459,-0.0419991,-63.89944458,15.02484608,-82.28588104,-0.01068773,-0.03574843,-6.74976492,0.99826574,0.00011147,0.00030593,0.05886877,-0.0001256,-0.00002158,0.00133434,0,0,26.30999947,0
1,3.91,391,0.00083259,0.003559,-0.99971086,-0.03112083,-0.02578247,0.02705127,-63.72405624,15.49254608,-82.51972961,-0.01099894,-0.03600501,-6.74950171,0.99826586,0.00011431,0.00030801,0.05886647,-0.00013362,-0.00035133,-0.00028253,0,0,26.30999947,0
1,3.92,392,0.00089578,0.00197716,-0.99809116,0.02152141,0.01118081,-0.05887502,-63.5194397,15.34638977,-82.34434509,-0.00862327,-0.04177185,-6.7501936,0.9982655,0.00009658,0.00035947,0.0588725,-0.00022436,0.00121397,-0.0019069,0,0,26.30999947,0
1,3.93,393,0.00080181,0.00364189,-0.99928367,-0.03151018,-0.00917842,0.06213764,-63.5194397,15.34638977,-82.34434509,-0.00893814,-0.04186128,-6.74956751,0.99826586,0.00009937,0.00036008,0.05886704,-0.00020935,-0.00047232,-0.0007094,0,0,26.30999947,0
1,3.94,394,0.00110775,0.00342087,-0.99886024,0.11028476,-0.00457518,-0.09360784,-63.60713196,16.45717621,-82.16895294,-0.00783605,-0.04190961,-6.75050497,0.99826533,0.0000898,0.00036107,0.0588752,-0.00051404,-0.0002594,-0.0011331,0,0,26.30999947,0
1,3.95,395,0.00107806,0.0029869,-0.99999279,-0.03120175,-0.00665351,-0.05943769,-63.95790482,16.69102669,-81.8181839,-0.00814854,-0.04197765,-6.75110579,0.99826503,0.00009256,0.0003615,0.05888044,-0.00048218,0.00016648,-0.00000193,0,0,26.30999947,0
1,3.96,396,0.00061958,0.00277973,-0.9987188,0.04013677,-0.06011565,0.04400093,-63.92867661,16.60333252,-82.11049652,-0.00774709,-0.04257703,-6.75065517,0.99826521,0.00008936,0.00036693,0.05887651,-0.00003289,0.0003721,-0.00127719,0,0,26.30999947,0
1,3.97,397,0.0018126,0.00241065,-1.00006068,0.00349413,0.00812559,0.0799975,-63.16866302,15.40485191,-82.46126556,-0.00884187,-0.03192047,-6.74979782,0.99826568,0.00009342,0.00027353,0.05886904,-0.00118399,0.00074709,0.00006519,0,0,26.30999947,0
1,3.98,398,0.00095361,0.00416466,-0.9980278,0.0164438,0.09566846,0.04435828,-63.4025116,16.57410049,-82.31510925,-0.00867727,-0.03096202,-6.74935865,0.99826598,0.0000915,0.00026527,0.05886522,-0.00017797,-0.00100296,-0.00196358,0,0,26.30999947,0
1,3.99,399,0.00126324,0.00183503,-1.00016177,-0.08968595,0.11377971,-0.04255494,-63.4025116,16.57410049,-82.31510925,-0.00957462,-0.02982517,-6.74978018,0.99826574,0.00009873,0.0002549,0.05886889,-0.00046265,0.00134495,0.00016373,0,0,26.30999947,0
1,4,400,-0.00032809,0.0027768,-0.99856871,-0.14090294,0.00931806,-0.04487032,-63.8117485,14.87869072,-81.75971985,-0.01098417,-0.02973305,-6.75021744,0.99826556,0.00011096,0.00025338,0.05887271,0.00113502,0.00042001,-0.00142857,0,0,26.30999947,0
1,4.01,401,0.00086368,0.00315564,-0.99929082,-0.05274925,0.00836265,0.04232275,-63.43174362,16.57410049,-82.3735733,-0.01151147,-0.02964766,-6.74979639,0.99826568,0.00011551,0.00025236,0.05886903,-0.00005578,0.00005868,-0.00070381,0,0,26.30999947,0
1,4.02,402,0.00123162,0.002534,-1.0001514,0.08929568,-0.02457066,0.0248194,-64.1917572,15.69716454,-81.99356842,-0.003184,-0.03247286,-6.74969625,0.99826574,0.00004442,0.00028125,0.05886814,-0.00043516,0.00064574,0.00015539,0,0,26.30999947,0
1,4.03,403,-0.00023584,0.00251747,-0.9993028,0.05282927,0.04511335,-0.00865562,-64.45483398,16.28178787,-82.4905014,-0.00265595,-0.03202159,-6.74979496,0.99826574,0.00003959,0.00027759,0.058869,0.0009999,0.00054692,-0.00069523,0,0,26.30999947,0
1,4.04,404,0.0007731,0.00225186,-0.99814814,0.01795714,0.02889148,-0.07861919,-64.45483398,16.28178787,-82.4905014,-0.00247714,-0.03173469,-6.75056839,0.99826533,0.00003788,0.00027518,0.05887574,-0.00000413,0.00080828,-0.00184929,0,0,26.30999947,0
1,4.05,405,0.0013829,0.00360238,-1.00037849,-0.03417075,-0.04344415,0.04134183,-63.87021255,16.19409561,-82.54895782,-0.00281869,-0.03216751,-6.75015783,0.9982655,0.00004108,0.00027878,0.05887216,-0.00061225,-0.00053717,0.00038595,0,0,26.30999947,0
1,4.06,406,0.00062041,0.00258806,-1.00136924,-0.06951316,-0.02393302,-0.08002436,-64.36714172,16.42794418,-82.40280151,-0.00351459,-0.03240889,-6.75094795,0.99826509,0.00004727,0.00028052,0.05887905,0.00014411,0.00049302,0.00137248,0,0,26.30999947,0
1,4.07,407,0.00055902,0.00238289,-0.99863356,-0.0175687,0.02710945,-0.00928901,-64.45483398,16.25255775,-82.11049652,-0.00442349,-0.02866279,-6.75107336,0.99826503,0.00005326,0.00024742,0.05888014,0.00021973,0.00069615,-0.00136384,0,0,26.30999947,0
1,4.08,408,0.00107836,0.0025593,-0.99832553,0.09471818,-0.04200993,-0.02641845,-63.28558731,15.55100822,-83.0166626,-0.00347667,-0.02908333,-6.75133419,0.99826491,0.00004523,0.00025157,0.05888242,-0.00025979,0.0005247,-0.00167063,0,0,26.30999947,0
1,4.09,409,0.00193295,0.00358049,-0.99925166,0.1134095,-0.0079487,-0.00787332,-63.28558731,15.55100822,-83.0166626,-0.00234281,-0.02916266,-6.75141621,0.99826491,0.00003539,0.00025285,0.05888313,-0.00111818,-0.00051741,-0.00074035,0,0,26.30999947,0
1,4.1,410,0.0004981,0.00237142,-0.99960768,0.04128508,0.0588712,0.08008557,-64.13329315,15.43408298,-82.16895294,-0.00192947,-0.02857113,-6.75060892,0.99826539,0.00003149,0.00024791,0.0588761,0.00032455,0.0006816,-0.0003898,0,0,26.30999947,0
1,4.11,411,0.00068089,0.00283436,-0.99996555,-0.10019426,0.07664321,-0.00696909,-64.04560089,15.14177132,-82.75357819,-0.00293164,-0.02780451,-6.75067711,0.99826527,0.00003982,0.00024071,0.05887669,0.00015641,0.00022568,-0.00003035,0,0,26.30999947,0
1,4.12,412,0.00147482,0.00334211,-0.99949974,0.02396275,0.0615872,-0.05892837,-64.33791351,16.19409561,-82.31510925,-0.00332436,-0.01972986,-6.75135851,0.99826491,0.0000391,0.00017017,0.05888262,-0.0005913,-0.00026939,-0.00049356,0,0,26.30999947,0
1,4.13,413,0.00113907,0.00325664,-1.00135803,0.02503549,-0.00879679,-0.00822686,-63.69482422,15.66793346,-82.02279663,-0.00307428,-0.01981768,-6.75143671,0.99826491,0.00003696,0.00017106,0.05888331,-0.00015462,-0.0001813,0.00136402,0,0,26.30999947,0
1,4.14,414,0.00037403,0.00348581,-0.99907392,0.04400335,-0.07720765,-0.04429412,-63.69482422,15.66793346,-82.02279663,-0.00263484,-0.0205907,-6.75187492,0.99826467,0.00003353,0.00017802,0.05888712,0.00059612,-0.00042037,-0.00092045,0,0,26.30999947,0
1,4.15,415,0.00123086,0.00294587,-0.99944532,-0.01070345,0.00746806,0.02671809,-64.25022125,16.69102669,-81.78894806,-0.0027418,-0.02051482,-6.75161743,0.99826479,0.00003443,0.00017731,0.05888488,-0.00026332,0.00011785,-0.00054958,0,0,26.30999947,0
1,4.16,416,0.00120071,0.00256699,-0.99872071,0.05943735,0.04315815,0.01033412,-63.95790482,16.72025681,-81.75971985,-0.00214749,-0.02008251,-6.75151205,0.99826479,0.00002903,0.00017385,0.05888396,-0.00022815,0.00048722,-0.00127534,0,0,26.30999947,0
1,4.17,417,0.00083289,0.00341533,-1.000139,-0.06480061,0.07734316,-0.02419558,-63.92867661,16.80795097,-82.28588104,-0.00322758,-0.02045502,-6.75173426,0.99826467,0.00003863,0.00017654,0.05888589,0.00014565,-0.00035836,0.00014506,0,0,26.30999947,0
1,4.18,418,0.00092617,0.00227669,-0.99942559,0.00487505,0.00770769,-0.10814858,-63.8117485,15.22946453,-82.19818878,-0.00318008,-0.02038086,-6.7528286,0.99826419,0.00003818,0.00017591,0.05889543,0.00004231,0.00079279,-0.00057168,0,0,26.30999947,0
1,4.19,419,0.0009856,0.00347078,-0.99986404,-0.05039221,-0.03351396,0.05125516,-63.95790482,16.34025192,-81.90587616,-0.00368364,-0.02071405,-6.75231838,0.99826443,0.00004274,0.00017856,0.05889099,-0.00001749,-0.00039426,-0.00012955,0,0,26.30999947,0
1,4.2,420,0.00175126,0.00238818,-0.99890476,0.03862831,-0.06695612,0.03353971,-63.95790482,16.34025192,-81.90587616,-0.00329719,-0.02138219,-6.75198174,0.99826455,0.00003971,0.00018458,0.05888805,-0.00079405,0.00068954,-0.00109105,0,0,26.30999947,0
1,4.21,421,0.00135315,0.00294763,-0.99953634,0.03798898,-0.01281553,-0.0696161,-63.89944458,15.55100822,-82.66588593,-0.00291813,-0.0215121,-6.75267553,0.99826419,0.00003648,0.0001859,0.0588941,-0.00040042,0.00012302,-0.00045841,0,0,26.30999947,0
1,4.22,422,0.0017807,0.00322055,-0.99950093,0.05570065,-0.03213558,0.03431151,-63.98713684,16.51563835,-82.11049652,-0.00771075,-0.01914534,-6.75236654,0.99826443,0.00007701,0.00016282,0.05889142,-0.00082476,-0.00013413,-0.00049243,0,0,26.30999947,0
1,4.23,423,0.00110834,0.00291985,-0.99810702,-0.03293052,-0.01529748,0.0169406,-63.31481934,16.45717621,-81.52587128,-0.00804005,-0.01929742,-6.75217867,0.99826455,0.00007996,0.00016398,0.05888978,-0.0001217,0.00022889,-0.00188807,0,0,26.30999947,0
1,4.24,424,0.00116846,0.00365808,-0.99855226,0.00181661,0.0196927,0.0177831,-64.27944946,16.28178787,-81.99356842,-0.00802186,-0.01909954,-6.75201464,0.99826461,0.0000797,0.00016226,0.05888835,-0.00017788,-0.00050369,-0.00144054,0,0,26.30999947,0
1,4.25,425,0.00031252,0.00369263,-0.99876666,-0.03236493,-0.03045876,-0.08761735,-64.27944946,16.28178787,-81.99356842,-0.00834655,-0.01940649,-6.75288677,0.99826413,0.00008269,0.00016477,0.05889595,0.00067595,-0.00053417,-0.00122718,0,0,26.30999947,0
1,4.26,426,0.00077084,0.00388147,-0.99909753,0.07294922,0.00412779,-0.03438829,-63.95790482,16.10640144,-82.08126068,-0.00761757,-0.01936589,-6.75321198,0.99826401,0.00007631,0.00016479,0.05889878,0.00021658,-0.0007263,-0.00089512,0,0,26.30999947,0
1,4.27,427,0.00123197,0.00239565,-1.00085342,-0.0151748,-0.03425682,0.10350028,-63.89944458,16.25255775,-82.60742188,-0.00322453,-0.00974848,-6.75211525,0.99826455,0.0000331,0.00008327,0.05888922,-0.00020302,0.0007376,0.00085691,0,0,26.30999947,0
1,4.28,428,0.0010178,0.00233924,-0.99951577,0.03786401,-0.04823985,-0.05296026,-63.98713684,15.81408882,-82.63665771,-0.00284669,-0.01023207,-6.75264406,0.99826425,0.00003006,0.00008767,0.05889382,0.00013263,0.00073078,-0.00048128,0,0,26.30999947,0
1,4.29,429,0.0006505,0.00264197,-0.99945116,0.01847723,-0.08646268,0.05044235,-63.89944458,15.78485775,-82.34434509,-0.00266149,-0.0110948,-6.75214529,0.99826455,0.00002889,0.00009528,0.05888948,0.00048794,0.00042382,-0.00054542,0,0,26.30999947,0
1,4.3,430,0.00049741,0.00275703,-0.99911499,0.08918361,-0.06593383,-0.07049961,-63.89944458,15.78485775,-82.34434509,-0.00177061,-0.01175591,-6.75286245,0.99826419,0.00002147,0.0001015,0.05889573,0.00062809,0.00029605,-0.00088144,0,0,26.30999947,0
1,4.31,431,0.00025255,0.00300607,-0.99941611,-0.07071234,-0.03461294,0.0164046,-63.78252029,15.78485775,-81.93510437,-0.00247769,-0.01210113,-6.75268412,0.99826431,0.0000278,0.00010415,0.05889418,0.00086616,0.0000448,-0.0005799,0,0,26.30999947,0
1,4.32,432,0.00062011,0.00251982,-0.99942261,0.07244938,-0.13756958,0.03223493,-63.98713684,15.37562084,-82.3735733,-0.00221661,-0.01931433,-6.75235033,0.99826443,0.00002924,0.00016712,0.05889127,0.00045123,0.00053282,-0.0005744,0,0,26.30999947,0
1,4.33,433,0.00083248,0.00347574,-0.99855572,-0.01880475,0.03591917,-0.0167169,-64.51329803,16.16486359,-82.72434998,-0.00240497,-0.01895526,-6.75250816,0.99826437,0.00003069,0.00016389,0.05889264,0.0001593,-0.0004219,-0.0014381,0,0,26.30999947,0
1,4.34,434,0.00132229,0.00295141,-0.99816686,0.05206351,0.01819008,0.03531911,-63.78252029,15.28792763,-82.46126556,-0.00188415,-0.01877193,-6.75215912,0.99826455,0.00002606,0.00016256,0.0588896,-0.0003256,0.00009837,-0.0018278,0,0,26.30999947,0
1,4.35,435,0.00080296,0.00291785,-0.9995684,-0.07122669,0.0007594,-0.01763011,-63.78252029,15.28792763,-82.46126556,-0.00259674,-0.01876448,-6.75233364,0.99826443,0.00003227,0.00016213,0.05889112,0.00019581,0.00013781,-0.00042716,0,0,26.30999947,0
1,4.36,436,0.0005579,0.00328727,-0.99980688,-0.01927503,0.07165221,-0.06811952,-64.16252136,16.22332573,-81.93510437,-0.00279034,-0.01804965,-6.75301075,0.99826407,0.00003359,0.00015581,0.05889702,0.00044969,-0.00022062,-0.00018787,0,0,26.30999947,0
1,4.37,437,0.00068038,0.00306152,-0.9991405,-0.07157198,0.01772416,0.00008832,-63.78252029,16.51563835,-82.69511414,-0.0028161,-0.02231584,-6.75297308,0.99826407,0.000036,0.00019296,0.05889669,0.0003155,0.00000574,-0.00085481,0,0,26.30999947,0
1,4.38,438,0.00135229,0.00349111,-0.9993456,-0.05338283,-0.01747855,0.03419377,-64.01636505,17.07103157,-82.63665771,-0.00334975,-0.02248918,-6.75262356,0.99826431,0.00004074,0.00019419,0.05889365,-0.00041956,-0.0004176,-0.00064749,0,0,26.30999947,0
1,4.39,439,0.00119996,0.003158,-0.99941176,0.13636479,-0.02127874,-0.03357686,-63.75328827,16.01870728,-82.16895294,-0.00198659,-0.02270261,-6.75295544,0.99826413,0.00002897,0.00019675,0.05889654,-0.00026879,-0.00009987,-0.00058246,0,0,26.30999947,0
1,4.4,440,0.00034351,0.00327745,-0.99773812,0.11834469,-0.00448358,-0.01592914,-62.96404648,15.55100822,-82.25665283,-0.00080345,-0.02274752,-6.75311708,0.99826401,0.00001869,0.00019775,0.05889794,0.00058398,-0.00024658,-0.00225688,0,0,26.30999947,0
1,4.41,441,0.00098615,0.0031061,-0.99986953,-0.03940579,-0.11393065,0.17237818,-62.96404648,15.55100822,-82.25665283,-0.00119609,-0.02388122,-6.75139332,0.99826491,0.00002269,0.00020743,0.05888292,-0.00006769,-0.00007109,-0.00012521,0,0,26.30999947,0
1,4.42,442,0.0013239,0.00210144,-0.99979252,-0.04098568,0.01167601,-0.03358287,-63.72405624,15.40485191,-82.08126068,0.00087223,-0.01852642,-6.75175905,0.99826473,0.00000192,0.00016184,0.05888611,-0.0003923,0.00092796,-0.00020474,0,0,26.30999947,0
1,4.43,443,0.00037475,0.00299779,-0.99898994,-0.00568014,0.01165458,-0.01607353,-63.69482422,15.84332085,-82.51972961,0.0008151,-0.01840996,-6.75191975,0.99826467,0.00000236,0.0001608,0.05888751,0.00062792,0.0000047,-0.00100594,0,0,26.30999947,0
1,4.44,444,0.00098729,0.00227551,-0.99936461,0.01311147,-0.0581991,0.0173308,-64.1917572,16.01870728,-82.51972961,0.00094621,-0.01899105,-6.75175238,0.99826473,0.00000152,0.00016593,0.05888605,0.00001331,0.0007275,-0.00063258,0,0,26.30999947,0
1,4.45,445,0.0009863,0.00301611,-0.99993169,0.01315553,-0.05783841,-0.00003711,-64.0748291,16.69102669,-82.46126556,0.00107761,-0.01956903,-6.75175238,0.99826473,0.00000067,0.00017103,0.05888605,-0.00000034,-0.0000207,-0.00006324,0,0,26.30999947,0
1,4.46,446,0.00080313,0.00275999,-0.99926645,0.08281885,-0.00626561,0.05340109,-64.0748291,16.69102669,-82.46126556,0.00190617,-0.01962972,-6.75121212,0.99826503,-0.00000652,0.00017198,0.05888135,0.00017937,0.00023048,-0.00072949,0,0,26.30999947,0
1,4.47,447,0.00110887,0.00272959,-0.99926621,-0.00542297,-0.00603159,0.00094381,-63.08097076,13.88482857,-82.43203735,-0.00294755,-0.01513807,-6.75133753,0.99826491,0.00003346,0.00013036,0.05888244,-0.00010601,0.00027124,-0.00072948,0,0,26.30999947,0
1,4.48,448,0.0004044,0.00360559,-0.99898076,-0.05801396,-0.02278382,-0.05172257,-64.04560089,16.34025192,-82.51972961,-0.0035284,-0.01536712,-6.75184774,0.99826473,0.00003863,0.00013206,0.05888689,0.00065588,-0.00053186,-0.00101335,0,0,26.30999947,0
1,4.49,449,0.00058931,0.00256464,-0.9986003,-0.05721788,0.05616771,-0.08364591,-63.08097076,15.17100239,-82.22741699,-0.00410164,-0.01480765,-6.75269318,0.99826419,0.00004334,0.00012689,0.05889425,0.00047948,0.00052274,-0.00139658,0,0,26.30999947,0
1,4.5,450,0.00165759,0.00373186,-0.9992196,-0.00262249,-0.03166381,0.14106625,-63.63636398,15.90178299,-81.84741211,-0.00412649,-0.01511955,-6.75126886,0.99826503,0.00004372,0.00012959,0.05888185,-0.00059621,-0.00064302,-0.00077233,0,0,26.30999947,0
1,4.51,451,0.00074043,0.00379266,-0.99922067,-0.03916982,0.05714918,0.0211023,-63.63636398,15.90178299,-81.84741211,-0.00451815,-0.01454701,-6.75106096,0.99826515,0.00004683,0.0001244,0.05888004,0.00032463,-0.00070322,-0.00077226,0,0,26.30999947,0
1,4.52,452,0.00058886,0.00308222,-1.0002054,0.0321759,0.0235374,0.00331614,-63.60713196,15.55100822,-82.28588104,-0.00091048,-0.01168023,-6.7509346,0.99826521,0.00001393,0.00010128,0.05887893,0.00050145,0.0000027,0.00021007,0,0,26.30999947,0
1,4.53,453,0.00061974,0.0026201,-0.99832559,-0.02037822,-0.01270447,0.05450661,-63.8117485,15.55100822,-82.46126556,-0.00111382,-0.01180524,-6.75039673,0.99826545,0.00001577,0.00010227,0.05887424,0.00050048,0.00040966,-0.00167109,0,0,26.30999947,0
1,4.54,454,0.00006905,0.00296149,-0.99868679,0.01359741,0.07534419,0.00429709,-63.78252029,16.54487038,-82.28588104,-0.00097797,-0.01105129,-6.75034618,0.9982655,0.0000142,0.00009577,0.0588738,0.00106077,0.00007233,-0.00130961,0,0,26.30999947,0
1,4.55,455,0.00058914,0.00268856,-0.99872023,-0.03805301,-0.01287408,0.05443593,-64.36714172,15.84332085,-82.13972473,-0.00135804,-0.011178,-6.74980545,0.99826574,0.00001757,0.00009668,0.05886909,0.00054252,0.00034511,-0.00127631,0,0,26.30999947,0
1,4.56,456,0.00028377,0.00272346,-1.00051582,-0.00231407,-0.02913893,0.01949098,-64.36714172,15.84332085,-82.13972473,-0.00138112,-0.01146842,-6.74961042,0.99826586,0.00001792,0.0000992,0.05886739,0.00084735,0.00032148,0.00051891,0,0,26.30999947,0
1,4.57,457,0.00077143,0.00366318,-1.00037897,0.01458922,0.0240892,-0.03149039,-64.16252136,16.77871895,-82.02279663,-0.01018172,-0.01540618,-6.7501812,0.9982655,0.00009661,0.00012898,0.05887237,0.00034019,-0.00058456,0.00038565,0,0,26.30999947,0
1,4.58,458,0.00144605,0.00212237,-0.99930507,0.03264619,-0.01219562,0.05471877,-64.65945435,16.39871407,-82.19818878,-0.00985485,-0.01552598,-6.74962664,0.99826586,0.00009383,0.00013019,0.05886754,-0.0003911,0.00106751,-0.00069206,0,0,26.30999947,0
1,4.59,459,0.00046767,0.00217429,-0.99884993,-0.10972349,0.03756139,0.08369344,-63.60713196,16.42794418,-82.3735733,-0.01095135,-0.01514729,-6.74879122,0.99826634,0.00010318,0.00012633,0.05886027,0.00059044,0.00102403,-0.00114829,0,0,26.30999947,0
1,4.6,460,0.00110802,0.00313258,-0.9981038,-0.00300761,0.00414776,0.05980167,-63.75328827,15.96024513,-82.95819855,-0.01098093,-0.01510351,-6.74819279,0.99826664,0.00010342,0.00012593,0.05885506,-0.00004803,0.00007255,-0.00189068,0,0,26.30999947,0
1,4.61,461,0.00107859,0.00247759,-0.99881363,-0.09193283,0.05816168,-0.0784435,-63.75328827,15.96024513,-82.95819855,-0.01190127,-0.01452402,-6.74898291,0.99826622,0.00011114,0.00012041,0.05886194,-0.00001285,0.00073562,-0.00118293,0,0,26.30999947,0
1,4.62,462,0.00113921,0.00288154,-0.99926388,-0.02226949,0.10973445,-0.02500535,-63.87021255,15.75562668,-82.43203735,-0.01745977,-0.02203843,-6.74947214,0.99826586,0.00016342,0.00018302,0.05886621,-0.00009133,0.00037101,-0.00073125,0,0,26.30999947,0
1,4.63,463,0.00086356,0.00321288,-0.99910736,0.03225387,0.00376556,0.09467884,-63.8117485,15.11254025,-82.05203247,-0.01713651,-0.02199722,-6.74852276,0.99826634,0.00016058,0.00018283,0.05885794,0.00007518,0.00010267,-0.00088711,0,0,26.30999947,0
1,4.64,464,0.00028247,0.0033238,-0.99855918,-0.00218485,-0.02869969,-0.02773898,-63.49020767,16.51563835,-82.31510925,-0.01715879,-0.02228476,-6.74880743,0.99826622,0.00016093,0.00018532,0.05886042,0.00065727,-0.00000785,-0.00143573,0,0,26.30999947,0
1,4.65,465,0.00062068,0.00201584,-0.99851722,-0.00356602,0.0391594,0.04313483,-63.98713684,16.69102669,-82.54895782,-0.01719425,-0.02189136,-6.74838161,0.99826646,0.00016103,0.00018188,0.05885672,0.0003192,0.00129738,-0.00148117,0,0,26.30999947,0
1,4.66,466,0.00138252,0.00373659,-0.99946356,0.03144548,0.07631375,-0.06023008,-63.89944458,16.36948204,-82.22741699,-0.01688051,-0.02112986,-6.748981,0.99826622,0.00015791,0.0001754,0.05886193,-0.00043133,-0.0004214,-0.00052864,0,0,26.30999947,0
1,4.67,467,0.00156643,0.0034023,-0.99946815,-0.07413303,0.03956303,-0.00925171,-63.89944458,16.36948204,-82.22741699,-0.02051458,-0.01987839,-6.74903631,0.9982661,0.00018892,0.00016263,0.05886242,-0.00059984,-0.00007533,-0.00052478,0,0,26.30999947,0
1,4.68,468,0.00080311,0.00286357,-0.99990398,0.0151006,-0.011926,0.00741809,-64.33791351,16.22332573,-82.78281403,-0.02036372,-0.01999701,-6.74895382,0.99826622,0.00018767,0.00016374,0.0588617,0.00017609,0.00051002,-0.00009163,0,0,26.30999947,0
1,4.69,469,0.00126135,0.00304354,-0.99977851,-0.03844188,0.06969221,0.07620076,-64.1917572,16.36948204,-82.08126068,-0.0207475,-0.01929713,-6.74819136,0.99826658,0.00019065,0.00015745,0.05885506,-0.00027701,0.00033175,-0.00021591,0,0,26.30999947,0
1,4.7,470,0.00104634,0.00367523,-0.99943483,-0.10581,0.09809925,-0.10374854,-63.66559601,15.46331501,-82.08126068,-0.02180676,-0.01831928,-6.74922085,0.99826598,0.00019938,0.00014839,0.05886403,-0.00004756,-0.00028775,-0.00055804,0,0,26.30999947,0
1,4.71,471,0.00092607,0.00230118,-0.99912089,-0.10452415,0.00966841,-0.01866174,-63.66559601,15.20023346,-82.34434509,-0.02285233,-0.01822282,-6.74940538,0.99826598,0.00020844,0.00014701,0.05886564,0.00008478,0.00110454,-0.00087627,0,0,26.30999947,0
1,4.72,472,0.00159957,0.00170104,-0.99952412,0.01872197,0.02673843,0.05165536,-63.66559601,15.20023346,-82.34434509,-0.0096671,-0.013848,-6.7487545,0.99826634,0.00009133,0.00011567,0.05885994,-0.00057324,0.00165503,-0.00047401,0,0,26.30999947,0
1,4.73,473,0.00068181,0.00208549,-0.99897248,-0.05205816,0.04518892,-0.03511643,-63.72405624,15.5802393,-82.02279663,-0.01018822,-0.01339685,-6.74910688,0.9982661,0.00009564,0.00011147,0.05886301,0.00040767,0.00110483,-0.00102568,0,0,26.30999947,0
1,4.74,474,0.00077209,0.00306271,-0.99920106,0.0186851,0.04622808,-0.05220149,-63.98713684,14.99561501,-82.46126556,-0.01000213,-0.01293586,-6.74963093,0.99826586,0.00009378,0.00010755,0.05886758,0.00032721,0.00013203,-0.00079406,0,0,26.30999947,0
1,4.75,475,0.00016097,0.00291431,-0.99938726,0.0010103,0.04605847,-0.05227225,-63.57789993,16.63256264,-82.13972473,-0.00999276,-0.01247656,-6.75015354,0.99826556,0.00009346,0.00010356,0.05887213,0.00094277,0.00027613,-0.00060915,0,0,26.30999947,0
1,4.76,476,0.00071127,0.00284938,-0.999174,0.10774969,0.01314664,-0.08728485,-64.04560089,16.22332573,-82.63665771,-0.00891636,-0.01234749,-6.75102615,0.99826515,0.00008402,0.00010298,0.05887973,0.00039737,0.00033094,-0.00082182,0,0,26.30999947,0
1,4.77,477,0.00138462,0.00237377,-0.99972743,0.01803139,0.06066794,0.08709227,-64.04560089,16.22332573,-82.63665771,-0.00847767,-0.01027726,-6.75015783,0.99826562,0.00007913,0.00008518,0.05887217,-0.00026021,0.00079462,-0.00026895,0,0,26.30999947,0
1,4.78,478,0.00068032,0.00312585,-0.99932206,-0.05339525,0.1134087,0.01838944,-63.98713684,16.01870728,-82.08126068,-0.00901155,-0.00914221,-6.74997997,0.99826562,0.0000832,0.00007501,0.05887061,0.00047785,0.00004257,-0.00067299,0,0,26.30999947,0
1,4.79,479,0.00107836,0.00270097,-0.99935806,0.00264865,-0.03948678,-0.10612865,-63.78252029,16.07716942,-82.87050629,-0.00898646,-0.00954005,-6.75102615,0.99826515,0.00008319,0.00007849,0.05887973,0.00008259,0.00047347,-0.00063778,0,0,26.30999947,0
1,4.8,480,0.00113927,0.00285351,-0.99938607,0.05055748,-0.04392029,-0.0267612,-63.43174362,16.42794418,-82.40280151,-0.00848137,-0.00997973,-6.75129032,0.99826497,0.00007901,0.00008258,0.05888204,0.00001551,0.00031458,-0.00060919,0,0,26.30999947,0
1,4.81,481,0.00058945,0.00261572,-0.99966472,0.1030972,-0.04737913,0.16449778,-63.98713684,16.34025192,-82.57819366,-0.00744867,-0.01044793,-6.74965096,0.9982658,0.00007026,0.00008719,0.05886775,0.0005562,0.00053669,-0.00033209,0,0,26.30999947,0
1,4.82,482,0.00126167,0.00283081,-0.99978173,-0.02225035,0.07667954,-0.02459024,-63.98713684,16.34025192,-82.57819366,-0.00404622,-0.01133233,-6.74985027,0.99826574,0.00004107,0.00009664,0.05886948,-0.0001145,0.00030381,-0.0002135,0,0,26.30999947,0
